user_id,task_count,task_id,choice_right,left_width_m,right_width_m,left_length_m,right_length_m,left_stairs,right_stairs,right_width_advantage_m,right_shortness_advantage_m,right_stairs_advantage,previous_choice_right,trial_progress,time_remaining_ms,decision_time_ms,confidence
11017391,1,25_L-WM0_R-NM0,0,4.0,2.0,15.0,15.0,0,0,-2.0,0.0,0,0.0,0.05,5253.0,2747.0,5.0
11017391,2,56_L-WL0_R-NM1,1,4.0,2.0,20.0,15.0,0,1,-2.0,5.0,1,-1.0,0.1,5451.0,2549.0,5.0
11017391,3,54_L-NS0_R-WM1,1,2.0,4.0,10.0,15.0,0,1,2.0,-5.0,1,1.0,0.15,5378.0,2622.0,5.0
11017391,4,19_L-NM0_R-WL0,1,2.0,4.0,15.0,20.0,0,0,2.0,-5.0,0,1.0,0.2,5950.0,2050.0,4.0
11017391,5,53_L-NM1_R-WS0,0,2.0,4.0,15.0,10.0,1,0,2.0,5.0,-1,1.0,0.25,4994.0,3006.0,3.0
11017391,6,49_L-NM0_R-WM1,1,2.0,4.0,15.0,15.0,0,1,2.0,0.0,1,-1.0,0.3,5773.0,2227.0,4.0
11017391,7,35_L-WS1_R-NL0,0,4.0,2.0,10.0,20.0,1,0,-2.0,-10.0,-1,1.0,0.35,5521.0,2479.0,4.0
11017391,8,45_L-ES1_R-EM0,0,2.0,2.0,10.0,15.0,1,0,0.0,-5.0,-1,-1.0,0.4,5550.0,2450.0,4.0
11017391,9,40_L-EM0_R-ES1,1,2.0,2.0,15.0,10.0,0,1,0.0,5.0,1,-1.0,0.45,5555.0,2445.0,4.0
11017391,10,61_L-WM1_R-NL0,0,4.0,2.0,15.0,20.0,1,0,-2.0,-5.0,-1,1.0,0.5,5952.0,2048.0,5.0
11017391,11,62_L-WM1_R-NM0,0,4.0,2.0,15.0,15.0,1,0,-2.0,0.0,-1,-1.0,0.55,5884.0,2116.0,5.0
11017391,12,34_L-WS0_R-NM0,0,4.0,2.0,10.0,15.0,0,0,-2.0,-5.0,0,-1.0,0.6,5883.0,2117.0,3.0
11017391,13,44_L-ES0_R-EM1,1,2.0,2.0,10.0,15.0,0,1,0.0,-5.0,1,-1.0,0.65,5786.0,2214.0,4.0
11017391,14,13_L-WS0_R-NM1,1,4.0,2.0,10.0,15.0,0,1,-2.0,-5.0,1,1.0,0.7,5816.0,2184.0,4.0
11017391,15,07_L-EM0_R-ES0,1,2.0,2.0,15.0,10.0,0,0,0.0,5.0,0,1.0,0.75,6183.0,1817.0,3.0
11017391,16,05_L-EM0_R-EL0,0,2.0,2.0,15.0,20.0,0,0,0.0,-5.0,0,1.0,0.8,4319.0,3681.0,2.0
11017391,17,50_L-NM0_R-WS1,1,2.0,4.0,15.0,10.0,0,1,2.0,5.0,1,-1.0,0.85,6034.0,1966.0,5.0
11017391,18,09_L-ES0_R-EL1,1,2.0,2.0,10.0,20.0,0,1,0.0,-10.0,1,1.0,0.9,5983.0,2017.0,4.0
11017391,19,47_L-NL1_R-WM0,1,2.0,4.0,20.0,15.0,1,0,2.0,5.0,-1,1.0,0.95,4988.0,3012.0,2.0
11017391,20,31_L-WM0_R-NS0,0,4.0,2.0,15.0,10.0,0,0,-2.0,5.0,0,1.0,1.0,5585.0,2415.0,3.0
11065958,1,48_L-NM0_R-WL1,1,2.0,4.0,15.0,20.0,0,1,2.0,-5.0,1,0.0,0.05,4649.0,3351.0,4.0
11065958,2,63_L-WM1_R-NS0,0,4.0,2.0,15.0,10.0,1,0,-2.0,5.0,-1,1.0,0.1,5505.0,2495.0,4.0
11065958,3,28_L-WL0_R-NS1,0,4.0,2.0,20.0,10.0,0,1,-2.0,10.0,1,-1.0,0.15,1808.0,6192.0,2.0
11065958,4,15_L-NL0_R-WM0,1,2.0,4.0,20.0,15.0,0,0,2.0,5.0,0,-1.0,0.2,4881.0,3119.0,4.0
11065958,5,37_L-EL1_R-EM0,0,2.0,2.0,20.0,15.0,1,0,0.0,5.0,-1,1.0,0.25,5034.0,2966.0,3.0
11065958,6,47_L-NL1_R-WM0,0,2.0,4.0,20.0,15.0,1,0,2.0,5.0,-1,-1.0,0.3,4779.0,3221.0,3.0
11065958,7,62_L-WM1_R-NM0,0,4.0,2.0,15.0,15.0,1,0,-2.0,0.0,-1,-1.0,0.35,5366.0,2634.0,4.0
11065958,8,11_L-ES1_R-EL0,0,2.0,2.0,10.0,20.0,1,0,0.0,-10.0,-1,-1.0,0.4,5751.0,2249.0,3.0
11065958,9,60_L-WM0_R-NS1,0,4.0,2.0,15.0,10.0,0,1,-2.0,5.0,1,-1.0,0.45,5711.0,2289.0,3.0
11065958,10,21_L-NS0_R-WL0,1,2.0,4.0,10.0,20.0,0,0,2.0,-10.0,0,-1.0,0.5,4702.0,3298.0,4.0
11065958,11,02_L-EL0_R-ES0,1,2.0,2.0,20.0,10.0,0,0,0.0,10.0,0,1.0,0.55,1726.0,6274.0,2.0
11065958,12,18_L-NL1_R-WS0,1,2.0,4.0,20.0,10.0,1,0,2.0,10.0,-1,1.0,0.6,2741.0,5259.0,3.0
11065958,13,29_L-WL1_R-NS0,0,4.0,2.0,20.0,10.0,1,0,-2.0,10.0,-1,1.0,0.65,5859.0,2141.0,4.0
11065958,14,33_L-WS0_R-NL1,0,4.0,2.0,10.0,20.0,0,1,-2.0,-10.0,1,-1.0,0.7,5756.0,2244.0,3.0
11065958,15,41_L-EM1_R-EL0,0,2.0,2.0,15.0,20.0,1,0,0.0,-5.0,-1,-1.0,0.75,4514.0,3486.0,4.0
11065958,16,31_L-WM0_R-NS0,0,4.0,2.0,15.0,10.0,0,0,-2.0,5.0,0,-1.0,0.8,5826.0,2174.0,4.0
11065958,17,36_L-EL0_R-EM1,1,2.0,2.0,20.0,15.0,0,1,0.0,5.0,1,-1.0,0.85,5095.0,2905.0,3.0
11065958,18,19_L-NM0_R-WL0,1,2.0,4.0,15.0,20.0,0,0,2.0,-5.0,0,1.0,0.9,5282.0,2718.0,4.0
11065958,20,16_L-NL0_R-WS0,1,2.0,4.0,20.0,10.0,0,0,2.0,10.0,0,1.0,1.0,5206.0,2794.0,4.0
1114855,1,21_L-NS0_R-WL0,1,2.0,4.0,10.0,20.0,0,0,2.0,-10.0,0,0.0,0.05,3248.0,4752.0,4.0
1114855,2,31_L-WM0_R-NS0,0,4.0,2.0,15.0,10.0,0,0,-2.0,5.0,0,1.0,0.1,3170.0,4830.0,4.0
1114855,3,46_L-NL0_R-WM1,1,2.0,4.0,20.0,15.0,0,1,2.0,5.0,1,-1.0,0.15,3673.0,4327.0,4.0
1114855,4,22_L-NS0_R-WL1,1,2.0,4.0,10.0,20.0,0,1,2.0,-10.0,1,1.0,0.2,5714.0,2286.0,4.0
1114855,5,62_L-WM1_R-NM0,0,4.0,2.0,15.0,15.0,1,0,-2.0,0.0,-1,1.0,0.25,4644.0,3356.0,4.0
1114855,6,40_L-EM0_R-ES1,1,2.0,2.0,15.0,10.0,0,1,0.0,5.0,1,-1.0,0.3,3940.0,4060.0,4.0
1114855,7,53_L-NM1_R-WS0,0,2.0,4.0,15.0,10.0,1,0,2.0,5.0,-1,1.0,0.35,1752.0,6248.0,4.0
1114855,8,61_L-WM1_R-NL0,0,4.0,2.0,15.0,20.0,1,0,-2.0,-5.0,-1,-1.0,0.4,5698.0,2302.0,4.0
1114855,9,14_L-WS1_R-NM0,0,4.0,2.0,10.0,15.0,1,0,-2.0,-5.0,-1,-1.0,0.45,5081.0,2919.0,4.0
1114855,10,44_L-ES0_R-EM1,1,2.0,2.0,10.0,15.0,0,1,0.0,-5.0,1,-1.0,0.5,2770.0,5230.0,4.0
1114855,11,48_L-NM0_R-WL1,1,2.0,4.0,15.0,20.0,0,1,2.0,-5.0,1,1.0,0.55,5586.0,2414.0,4.0
1114855,12,01_L-EL0_R-EM0,0,2.0,2.0,20.0,15.0,0,0,0.0,5.0,0,1.0,0.6,2549.0,5451.0,4.0
1114855,13,56_L-WL0_R-NM1,1,4.0,2.0,20.0,15.0,0,1,-2.0,5.0,1,-1.0,0.65,2367.0,5633.0,4.0
1114855,14,08_L-ES0_R-EL0,0,2.0,2.0,10.0,20.0,0,0,0.0,-10.0,0,1.0,0.7,1421.0,6579.0,4.0
1114855,15,52_L-NM1_R-WM0,1,2.0,4.0,15.0,15.0,1,0,2.0,0.0,-1,-1.0,0.75,750.0,7250.0,4.0
1114855,16,35_L-WS1_R-NL0,0,4.0,2.0,10.0,20.0,1,0,-2.0,-10.0,-1,1.0,0.8,5567.0,2433.0,4.0
1114855,17,06_L-EM0_R-EM0,0,2.0,2.0,15.0,15.0,0,0,0.0,0.0,0,-1.0,0.85,5154.0,2846.0,4.0
1114855,18,45_L-ES1_R-EM0,0,2.0,2.0,10.0,15.0,1,0,0.0,-5.0,-1,-1.0,0.9,3124.0,4876.0,4.0
1114855,19,59_L-WM0_R-NM1,0,4.0,2.0,15.0,15.0,0,1,-2.0,0.0,1,-1.0,0.95,6391.0,1609.0,4.0
1114855,20,50_L-NM0_R-WS1,1,2.0,4.0,15.0,10.0,0,1,2.0,5.0,1,-1.0,1.0,6387.0,1613.0,5.0
11519326,1,05_L-EM0_R-EL0,0,2.0,2.0,15.0,20.0,0,0,0.0,-5.0,0,0.0,0.05,3723.0,4277.0,2.0
11519326,2,41_L-EM1_R-EL0,0,2.0,2.0,15.0,20.0,1,0,0.0,-5.0,-1,-1.0,0.1,2958.0,5042.0,3.0
11519326,3,51_L-NM1_R-WL0,0,2.0,4.0,15.0,20.0,1,0,2.0,-5.0,-1,-1.0,0.15,3671.0,4329.0,3.0
11519326,4,22_L-NS0_R-WL1,0,2.0,4.0,10.0,20.0,0,1,2.0,-10.0,1,-1.0,0.2,3637.0,4363.0,3.0
11519326,5,18_L-NL1_R-WS0,1,2.0,4.0,20.0,10.0,1,0,2.0,10.0,-1,-1.0,0.25,2808.0,5192.0,3.0
11519326,6,35_L-WS1_R-NL0,0,4.0,2.0,10.0,20.0,1,0,-2.0,-10.0,-1,1.0,0.3,4636.0,3364.0,4.0
11519326,7,28_L-WL0_R-NS1,1,4.0,2.0,20.0,10.0,0,1,-2.0,10.0,1,-1.0,0.35,4037.0,3963.0,3.0
11519326,8,34_L-WS0_R-NM0,0,4.0,2.0,10.0,15.0,0,0,-2.0,-5.0,0,1.0,0.4,4807.0,3193.0,3.0
11519326,9,37_L-EL1_R-EM0,0,2.0,2.0,20.0,15.0,1,0,0.0,5.0,-1,-1.0,0.45,2639.0,5361.0,2.0
11519326,10,44_L-ES0_R-EM1,1,2.0,2.0,10.0,15.0,0,1,0.0,-5.0,1,-1.0,0.5,3005.0,4995.0,3.0
11519326,11,58_L-WM0_R-NL1,1,4.0,2.0,15.0,20.0,0,1,-2.0,-5.0,1,1.0,0.55,1107.0,6893.0,2.0
11519326,12,03_L-EL0_R-ES1,1,2.0,2.0,20.0,10.0,0,1,0.0,10.0,1,1.0,0.6,5253.0,2747.0,3.0
11519326,13,01_L-EL0_R-EM0,1,2.0,2.0,20.0,15.0,0,0,0.0,5.0,0,1.0,0.65,4986.0,3014.0,3.0
11519326,14,16_L-NL0_R-WS0,1,2.0,4.0,20.0,10.0,0,0,2.0,10.0,0,1.0,0.7,3485.0,4515.0,3.0
11519326,16,31_L-WM0_R-NS0,1,4.0,2.0,15.0,10.0,0,0,-2.0,5.0,0,1.0,0.8,3206.0,4794.0,3.0
11519326,17,42_L-EM1_R-EM0,0,2.0,2.0,15.0,15.0,1,0,0.0,0.0,-1,1.0,0.85,4653.0,3347.0,3.0
11519326,18,62_L-WM1_R-NM0,0,4.0,2.0,15.0,15.0,1,0,-2.0,0.0,-1,-1.0,0.9,3902.0,4098.0,4.0
11519326,19,11_L-ES1_R-EL0,0,2.0,2.0,10.0,20.0,1,0,0.0,-10.0,-1,-1.0,0.95,5052.0,2948.0,4.0
11519326,20,24_L-NS1_R-WL0,0,2.0,4.0,10.0,20.0,1,0,2.0,-10.0,-1,-1.0,1.0,5386.0,2614.0,3.0
11739127,1,28_L-WL0_R-NS1,0,4.0,2.0,20.0,10.0,0,1,-2.0,10.0,1,0.0,0.05,4511.0,3489.0,2.0
11739127,2,25_L-WM0_R-NM0,0,4.0,2.0,15.0,15.0,0,0,-2.0,0.0,0,-1.0,0.1,2124.0,5876.0,1.0
11739127,4,32_L-WS0_R-NL0,0,4.0,2.0,10.0,20.0,0,0,-2.0,-10.0,0,-1.0,0.2,5053.0,2947.0,2.0
11739127,5,11_L-ES1_R-EL0,1,2.0,2.0,10.0,20.0,1,0,0.0,-10.0,-1,-1.0,0.25,5284.0,2716.0,2.0
11739127,6,36_L-EL0_R-EM1,1,2.0,2.0,20.0,15.0,0,1,0.0,5.0,1,1.0,0.3,1633.0,6367.0,3.0
11739127,7,14_L-WS1_R-NM0,0,4.0,2.0,10.0,15.0,1,0,-2.0,-5.0,-1,1.0,0.35,5121.0,2879.0,4.0
11739127,8,15_L-NL0_R-WM0,1,2.0,4.0,20.0,15.0,0,0,2.0,5.0,0,-1.0,0.4,4708.0,3292.0,4.0
11739127,9,45_L-ES1_R-EM0,0,2.0,2.0,10.0,15.0,1,0,0.0,-5.0,-1,1.0,0.45,4676.0,3324.0,4.0
11739127,10,40_L-EM0_R-ES1,1,2.0,2.0,15.0,10.0,0,1,0.0,5.0,1,-1.0,0.5,3441.0,4559.0,4.0
11739127,11,43_L-EM1_R-ES0,0,2.0,2.0,15.0,10.0,1,0,0.0,5.0,-1,1.0,0.55,4770.0,3230.0,4.0
11739127,12,53_L-NM1_R-WS0,0,2.0,4.0,15.0,10.0,1,0,2.0,5.0,-1,-1.0,0.6,4804.0,3196.0,4.0
11739127,13,07_L-EM0_R-ES0,1,2.0,2.0,15.0,10.0,0,0,0.0,5.0,0,-1.0,0.65,5659.0,2341.0,2.0
11739127,14,42_L-EM1_R-EM0,0,2.0,2.0,15.0,15.0,1,0,0.0,0.0,-1,1.0,0.7,5204.0,2796.0,4.0
11739127,15,29_L-WL1_R-NS0,0,4.0,2.0,20.0,10.0,1,0,-2.0,10.0,-1,-1.0,0.75,4266.0,3734.0,4.0
11739127,16,61_L-WM1_R-NL0,0,4.0,2.0,15.0,20.0,1,0,-2.0,-5.0,-1,-1.0,0.8,5070.0,2930.0,4.0
11739127,17,49_L-NM0_R-WM1,1,2.0,4.0,15.0,15.0,0,1,2.0,0.0,1,-1.0,0.85,5056.0,2944.0,4.0
11739127,18,62_L-WM1_R-NM0,0,4.0,2.0,15.0,15.0,1,0,-2.0,0.0,-1,1.0,0.9,4549.0,3451.0,4.0
11739127,19,22_L-NS0_R-WL1,1,2.0,4.0,10.0,20.0,0,1,2.0,-10.0,1,-1.0,0.95,5749.0,2251.0,4.0
11739127,20,33_L-WS0_R-NL1,1,4.0,2.0,10.0,20.0,0,1,-2.0,-10.0,1,1.0,1.0,5559.0,2441.0,4.0
1178658,1,42_L-EM1_R-EM0,0,2.0,2.0,15.0,15.0,1,0,0.0,0.0,-1,0.0,0.05,4582.0,3418.0,4.0
1178658,2,60_L-WM0_R-NS1,1,4.0,2.0,15.0,10.0,0,1,-2.0,5.0,1,-1.0,0.1,5356.0,2644.0,4.0
1178658,3,52_L-NM1_R-WM0,0,2.0,4.0,15.0,15.0,1,0,2.0,0.0,-1,1.0,0.15,4948.0,3052.0,4.0
1178658,4,26_L-WL0_R-NM0,0,4.0,2.0,20.0,15.0,0,0,-2.0,5.0,0,-1.0,0.2,3616.0,4384.0,3.0
1178658,5,25_L-WM0_R-NM0,0,4.0,2.0,15.0,15.0,0,0,-2.0,0.0,0,-1.0,0.25,4199.0,3801.0,3.0
1178658,6,32_L-WS0_R-NL0,0,4.0,2.0,10.0,20.0,0,0,-2.0,-10.0,0,-1.0,0.3,4520.0,3480.0,4.0
1178658,7,38_L-EM0_R-EL1,1,2.0,2.0,15.0,20.0,0,1,0.0,-5.0,1,-1.0,0.35,5163.0,2837.0,5.0
1178658,8,36_L-EL0_R-EM1,1,2.0,2.0,20.0,15.0,0,1,0.0,5.0,1,1.0,0.4,5700.0,2300.0,4.0
1178658,9,23_L-NS0_R-WM0,1,2.0,4.0,10.0,15.0,0,0,2.0,-5.0,0,1.0,0.45,3680.0,4320.0,3.0
1178658,10,18_L-NL1_R-WS0,0,2.0,4.0,20.0,10.0,1,0,2.0,10.0,-1,1.0,0.5,5581.0,2419.0,4.0
1178658,11,29_L-WL1_R-NS0,0,4.0,2.0,20.0,10.0,1,0,-2.0,10.0,-1,-1.0,0.55,5776.0,2224.0,4.0
1178658,12,63_L-WM1_R-NS0,0,4.0,2.0,15.0,10.0,1,0,-2.0,5.0,-1,-1.0,0.6,5487.0,2513.0,4.0
1178658,13,27_L-WL0_R-NS0,1,4.0,2.0,20.0,10.0,0,0,-2.0,10.0,0,-1.0,0.65,4001.0,3999.0,3.0
1178658,14,41_L-EM1_R-EL0,0,2.0,2.0,15.0,20.0,1,0,0.0,-5.0,-1,1.0,0.7,5729.0,2271.0,4.0
1178658,15,48_L-NM0_R-WL1,1,2.0,4.0,15.0,20.0,0,1,2.0,-5.0,1,-1.0,0.75,5764.0,2236.0,4.0
1178658,16,13_L-WS0_R-NM1,1,4.0,2.0,10.0,15.0,0,1,-2.0,-5.0,1,1.0,0.8,5796.0,2204.0,4.0
1178658,17,19_L-NM0_R-WL0,1,2.0,4.0,15.0,20.0,0,0,2.0,-5.0,0,1.0,0.85,5983.0,2017.0,3.0
1178658,18,59_L-WM0_R-NM1,1,4.0,2.0,15.0,15.0,0,1,-2.0,0.0,1,1.0,0.9,5791.0,2209.0,4.0
1178658,19,43_L-EM1_R-ES0,0,2.0,2.0,15.0,10.0,1,0,0.0,5.0,-1,1.0,0.95,5772.0,2228.0,4.0
1178658,20,37_L-EL1_R-EM0,0,2.0,2.0,20.0,15.0,1,0,0.0,5.0,-1,-1.0,1.0,5571.0,2429.0,5.0
11976433,1,44_L-ES0_R-EM1,1,2.0,2.0,10.0,15.0,0,1,0.0,-5.0,1,0.0,0.05,4055.0,3945.0,3.0
11976433,2,27_L-WL0_R-NS0,0,4.0,2.0,20.0,10.0,0,0,-2.0,10.0,0,1.0,0.1,950.0,7050.0,2.0
11976433,3,63_L-WM1_R-NS0,0,4.0,2.0,15.0,10.0,1,0,-2.0,5.0,-1,-1.0,0.15,4317.0,3683.0,4.0
11976433,4,56_L-WL0_R-NM1,1,4.0,2.0,20.0,15.0,0,1,-2.0,5.0,1,-1.0,0.2,4735.0,3265.0,3.0
11976433,5,40_L-EM0_R-ES1,1,2.0,2.0,15.0,10.0,0,1,0.0,5.0,1,1.0,0.25,2616.0,5384.0,4.0
11976433,6,30_L-WM0_R-NL0,0,4.0,2.0,15.0,20.0,0,0,-2.0,-5.0,0,1.0,0.3,4500.0,3500.0,4.0
11976433,7,47_L-NL1_R-WM0,0,2.0,4.0,20.0,15.0,1,0,2.0,5.0,-1,-1.0,0.35,3701.0,4299.0,4.0
11976433,8,28_L-WL0_R-NS1,1,4.0,2.0,20.0,10.0,0,1,-2.0,10.0,1,-1.0,0.4,4263.0,3737.0,4.0
11976433,9,54_L-NS0_R-WM1,1,2.0,4.0,10.0,15.0,0,1,2.0,-5.0,1,1.0,0.45,5432.0,2568.0,4.0
11976433,10,46_L-NL0_R-WM1,1,2.0,4.0,20.0,15.0,0,1,2.0,5.0,1,1.0,0.5,5617.0,2383.0,4.0
11976433,11,35_L-WS1_R-NL0,0,4.0,2.0,10.0,20.0,1,0,-2.0,-10.0,-1,1.0,0.55,3616.0,4384.0,4.0
11976433,12,49_L-NM0_R-WM1,1,2.0,4.0,15.0,15.0,0,1,2.0,0.0,1,-1.0,0.6,5264.0,2736.0,4.0
11976433,13,16_L-NL0_R-WS0,1,2.0,4.0,20.0,10.0,0,0,2.0,10.0,0,1.0,0.65,5199.0,2801.0,3.0
11976433,14,01_L-EL0_R-EM0,1,2.0,2.0,20.0,15.0,0,0,0.0,5.0,0,1.0,0.7,3506.0,4494.0,2.0
11976433,15,58_L-WM0_R-NL1,0,4.0,2.0,15.0,20.0,0,1,-2.0,-5.0,1,1.0,0.75,5163.0,2837.0,3.0
11976433,16,04_L-EL1_R-ES0,0,2.0,2.0,20.0,10.0,1,0,0.0,10.0,-1,-1.0,0.8,5467.0,2533.0,4.0
11976433,17,10_L-ES0_R-EM0,0,2.0,2.0,10.0,15.0,0,0,0.0,-5.0,0,-1.0,0.85,3471.0,4529.0,1.0
11976433,18,41_L-EM1_R-EL0,0,2.0,2.0,15.0,20.0,1,0,0.0,-5.0,-1,-1.0,0.9,5250.0,2750.0,3.0
11976433,19,33_L-WS0_R-NL1,1,4.0,2.0,10.0,20.0,0,1,-2.0,-10.0,1,-1.0,0.95,4050.0,3950.0,3.0
11976433,20,52_L-NM1_R-WM0,0,2.0,4.0,15.0,15.0,1,0,2.0,0.0,-1,1.0,1.0,4698.0,3302.0,3.0
12811472,1,11_L-ES1_R-EL0,0,2.0,2.0,10.0,20.0,1,0,0.0,-10.0,-1,0.0,0.05,4849.0,3151.0,4.0
12811472,2,09_L-ES0_R-EL1,1,2.0,2.0,10.0,20.0,0,1,0.0,-10.0,1,-1.0,0.1,5003.0,2997.0,4.0
12811472,3,27_L-WL0_R-NS0,0,4.0,2.0,20.0,10.0,0,0,-2.0,10.0,0,1.0,0.15,4399.0,3601.0,3.0
12811472,4,14_L-WS1_R-NM0,0,4.0,2.0,10.0,15.0,1,0,-2.0,-5.0,-1,-1.0,0.2,5132.0,2868.0,4.0
12811472,5,42_L-EM1_R-EM0,0,2.0,2.0,15.0,15.0,1,0,0.0,0.0,-1,-1.0,0.25,5245.0,2755.0,4.0
12811472,6,02_L-EL0_R-ES0,1,2.0,2.0,20.0,10.0,0,0,0.0,10.0,0,-1.0,0.3,4360.0,3640.0,3.0
12811472,7,47_L-NL1_R-WM0,0,2.0,4.0,20.0,15.0,1,0,2.0,5.0,-1,1.0,0.35,6749.0,1251.0,4.0
12811472,9,56_L-WL0_R-NM1,1,4.0,2.0,20.0,15.0,0,1,-2.0,5.0,1,-1.0,0.45,5617.0,2383.0,4.0
12811472,10,52_L-NM1_R-WM0,0,2.0,4.0,15.0,15.0,1,0,2.0,0.0,-1,1.0,0.5,4797.0,3203.0,4.0
12811472,11,46_L-NL0_R-WM1,1,2.0,4.0,20.0,15.0,0,1,2.0,5.0,1,-1.0,0.55,5815.0,2185.0,4.0
12811472,12,45_L-ES1_R-EM0,0,2.0,2.0,10.0,15.0,1,0,0.0,-5.0,-1,1.0,0.6,5589.0,2411.0,4.0
12811472,13,55_L-NS1_R-WM0,0,2.0,4.0,10.0,15.0,1,0,2.0,-5.0,-1,-1.0,0.65,5319.0,2681.0,4.0
12811472,14,22_L-NS0_R-WL1,1,2.0,4.0,10.0,20.0,0,1,2.0,-10.0,1,-1.0,0.7,5614.0,2386.0,4.0
12811472,15,17_L-NL0_R-WS1,1,2.0,4.0,20.0,10.0,0,1,2.0,10.0,1,1.0,0.75,6127.0,1873.0,4.0
12811472,16,23_L-NS0_R-WM0,0,2.0,4.0,10.0,15.0,0,0,2.0,-5.0,0,1.0,0.8,5266.0,2734.0,3.0
12811472,17,25_L-WM0_R-NM0,0,4.0,2.0,15.0,15.0,0,0,-2.0,0.0,0,-1.0,0.85,5200.0,2800.0,3.0
12811472,18,35_L-WS1_R-NL0,0,4.0,2.0,10.0,20.0,1,0,-2.0,-10.0,-1,-1.0,0.9,5335.0,2665.0,4.0
12811472,19,29_L-WL1_R-NS0,0,4.0,2.0,20.0,10.0,1,0,-2.0,10.0,-1,-1.0,0.95,3995.0,4005.0,4.0
12811472,20,40_L-EM0_R-ES1,1,2.0,2.0,15.0,10.0,0,1,0.0,5.0,1,-1.0,1.0,5900.0,2100.0,4.0
12869257,1,38_L-EM0_R-EL1,0,2.0,2.0,15.0,20.0,0,1,0.0,-5.0,1,0.0,0.05,4986.0,3014.0,4.0
12869257,2,28_L-WL0_R-NS1,0,4.0,2.0,20.0,10.0,0,1,-2.0,10.0,1,-1.0,0.1,5678.0,2322.0,4.0
12869257,3,18_L-NL1_R-WS0,1,2.0,4.0,20.0,10.0,1,0,2.0,10.0,-1,-1.0,0.15,5334.0,2666.0,4.0
12869257,4,44_L-ES0_R-EM1,1,2.0,2.0,10.0,15.0,0,1,0.0,-5.0,1,1.0,0.2,3359.0,4641.0,4.0
12869257,5,48_L-NM0_R-WL1,1,2.0,4.0,15.0,20.0,0,1,2.0,-5.0,1,1.0,0.25,4967.0,3033.0,5.0
12869257,6,19_L-NM0_R-WL0,0,2.0,4.0,15.0,20.0,0,0,2.0,-5.0,0,1.0,0.3,4631.0,3369.0,3.0
12869257,7,03_L-EL0_R-ES1,1,2.0,2.0,20.0,10.0,0,1,0.0,10.0,1,-1.0,0.35,3752.0,4248.0,3.0
12869257,8,16_L-NL0_R-WS0,0,2.0,4.0,20.0,10.0,0,0,2.0,10.0,0,1.0,0.4,5293.0,2707.0,3.0
12869257,9,17_L-NL0_R-WS1,1,2.0,4.0,20.0,10.0,0,1,2.0,10.0,1,-1.0,0.45,5143.0,2857.0,4.0
12869257,10,24_L-NS1_R-WL0,0,2.0,4.0,10.0,20.0,1,0,2.0,-10.0,-1,1.0,0.5,3523.0,4477.0,2.0
12869257,11,09_L-ES0_R-EL1,1,2.0,2.0,10.0,20.0,0,1,0.0,-10.0,1,-1.0,0.55,4374.0,3626.0,2.0
12869257,12,27_L-WL0_R-NS0,0,4.0,2.0,20.0,10.0,0,0,-2.0,10.0,0,1.0,0.6,2976.0,5024.0,2.0
12869257,13,37_L-EL1_R-EM0,0,2.0,2.0,20.0,15.0,1,0,0.0,5.0,-1,-1.0,0.65,4430.0,3570.0,3.0
12869257,14,47_L-NL1_R-WM0,0,2.0,4.0,20.0,15.0,1,0,2.0,5.0,-1,-1.0,0.7,5600.0,2400.0,3.0
12869257,15,33_L-WS0_R-NL1,1,4.0,2.0,10.0,20.0,0,1,-2.0,-10.0,1,-1.0,0.75,4959.0,3041.0,4.0
12869257,16,06_L-EM0_R-EM0,1,2.0,2.0,15.0,15.0,0,0,0.0,0.0,0,1.0,0.8,3738.0,4262.0,3.0
12869257,17,23_L-NS0_R-WM0,1,2.0,4.0,10.0,15.0,0,0,2.0,-5.0,0,1.0,0.85,4278.0,3722.0,2.0
12869257,18,63_L-WM1_R-NS0,0,4.0,2.0,15.0,10.0,1,0,-2.0,5.0,-1,1.0,0.9,5583.0,2417.0,4.0
12869257,19,13_L-WS0_R-NM1,1,4.0,2.0,10.0,15.0,0,1,-2.0,-5.0,1,-1.0,0.95,4657.0,3343.0,3.0
12869257,20,14_L-WS1_R-NM0,0,4.0,2.0,10.0,15.0,1,0,-2.0,-5.0,-1,1.0,1.0,5793.0,2207.0,4.0
13455851,1,11_L-ES1_R-EL0,0,2.0,2.0,10.0,20.0,1,0,0.0,-10.0,-1,0.0,0.05,5774.0,2226.0,4.0
13455851,2,12_L-NM0_R-WM0,1,2.0,4.0,15.0,15.0,0,0,2.0,0.0,0,-1.0,0.1,3967.0,4033.0,3.0
13455851,3,13_L-WS0_R-NM1,1,4.0,2.0,10.0,15.0,0,1,-2.0,-5.0,1,1.0,0.15,3374.0,4626.0,4.0
13455851,4,19_L-NM0_R-WL0,0,2.0,4.0,15.0,20.0,0,0,2.0,-5.0,0,1.0,0.2,2884.0,5116.0,2.0
13455851,5,33_L-WS0_R-NL1,1,4.0,2.0,10.0,20.0,0,1,-2.0,-10.0,1,-1.0,0.25,2582.0,5418.0,4.0
13455851,6,59_L-WM0_R-NM1,1,4.0,2.0,15.0,15.0,0,1,-2.0,0.0,1,1.0,0.3,5117.0,2883.0,4.0
13455851,8,02_L-EL0_R-ES0,0,2.0,2.0,20.0,10.0,0,0,0.0,10.0,0,1.0,0.4,3118.0,4882.0,2.0
13455851,9,42_L-EM1_R-EM0,0,2.0,2.0,15.0,15.0,1,0,0.0,0.0,-1,-1.0,0.45,4230.0,3770.0,4.0
13455851,10,26_L-WL0_R-NM0,0,4.0,2.0,20.0,15.0,0,0,-2.0,5.0,0,-1.0,0.5,3585.0,4415.0,2.0
13455851,11,28_L-WL0_R-NS1,1,4.0,2.0,20.0,10.0,0,1,-2.0,10.0,1,-1.0,0.55,5984.0,2016.0,4.0
13455851,12,47_L-NL1_R-WM0,0,2.0,4.0,20.0,15.0,1,0,2.0,5.0,-1,1.0,0.6,5423.0,2577.0,4.0
13455851,13,18_L-NL1_R-WS0,0,2.0,4.0,20.0,10.0,1,0,2.0,10.0,-1,-1.0,0.65,5457.0,2543.0,4.0
13455851,14,05_L-EM0_R-EL0,0,2.0,2.0,15.0,20.0,0,0,0.0,-5.0,0,-1.0,0.7,3699.0,4301.0,2.0
13455851,15,20_L-NM0_R-WS0,0,2.0,4.0,15.0,10.0,0,0,2.0,5.0,0,-1.0,0.75,5345.0,2655.0,1.0
13455851,16,51_L-NM1_R-WL0,0,2.0,4.0,15.0,20.0,1,0,2.0,-5.0,-1,-1.0,0.8,5664.0,2336.0,4.0
13455851,17,29_L-WL1_R-NS0,0,4.0,2.0,20.0,10.0,1,0,-2.0,10.0,-1,-1.0,0.85,6034.0,1966.0,4.0
13455851,18,30_L-WM0_R-NL0,1,4.0,2.0,15.0,20.0,0,0,-2.0,-5.0,0,-1.0,0.9,4754.0,3246.0,3.0
13455851,19,62_L-WM1_R-NM0,0,4.0,2.0,15.0,15.0,1,0,-2.0,0.0,-1,1.0,0.95,6051.0,1949.0,4.0
13455851,20,14_L-WS1_R-NM0,0,4.0,2.0,10.0,15.0,1,0,-2.0,-5.0,-1,-1.0,1.0,5488.0,2512.0,4.0
13896031,1,37_L-EL1_R-EM0,1,2.0,2.0,20.0,15.0,1,0,0.0,5.0,-1,0.0,0.05,5908.0,2092.0,2.0
13896031,2,09_L-ES0_R-EL1,1,2.0,2.0,10.0,20.0,0,1,0.0,-10.0,1,1.0,0.1,4764.0,3236.0,2.0
13896031,3,45_L-ES1_R-EM0,0,2.0,2.0,10.0,15.0,1,0,0.0,-5.0,-1,1.0,0.15,4892.0,3108.0,2.0
13896031,4,62_L-WM1_R-NM0,0,4.0,2.0,15.0,15.0,1,0,-2.0,0.0,-1,-1.0,0.2,5253.0,2747.0,2.0
13896031,5,57_L-WL1_R-NM0,0,4.0,2.0,20.0,15.0,1,0,-2.0,5.0,-1,-1.0,0.25,5150.0,2850.0,2.0
13896031,6,52_L-NM1_R-WM0,0,2.0,4.0,15.0,15.0,1,0,2.0,0.0,-1,-1.0,0.3,4905.0,3095.0,2.0
13896031,7,38_L-EM0_R-EL1,1,2.0,2.0,15.0,20.0,0,1,0.0,-5.0,1,-1.0,0.35,4973.0,3027.0,2.0
13896031,8,10_L-ES0_R-EM0,0,2.0,2.0,10.0,15.0,0,0,0.0,-5.0,0,1.0,0.4,4182.0,3818.0,2.0
13896031,9,01_L-EL0_R-EM0,0,2.0,2.0,20.0,15.0,0,0,0.0,5.0,0,-1.0,0.45,5316.0,2684.0,2.0
13896031,10,04_L-EL1_R-ES0,0,2.0,2.0,20.0,10.0,1,0,0.0,10.0,-1,-1.0,0.5,4550.0,3450.0,3.0
13896031,11,06_L-EM0_R-EM0,1,2.0,2.0,15.0,15.0,0,0,0.0,0.0,0,-1.0,0.55,4817.0,3183.0,3.0
13896031,12,12_L-NM0_R-WM0,1,2.0,4.0,15.0,15.0,0,0,2.0,0.0,0,1.0,0.6,4865.0,3135.0,3.0
13896031,13,36_L-EL0_R-EM1,1,2.0,2.0,20.0,15.0,0,1,0.0,5.0,1,1.0,0.65,4942.0,3058.0,3.0
13896031,14,24_L-NS1_R-WL0,0,2.0,4.0,10.0,20.0,1,0,2.0,-10.0,-1,1.0,0.7,5155.0,2845.0,2.0
13896031,15,48_L-NM0_R-WL1,1,2.0,4.0,15.0,20.0,0,1,2.0,-5.0,1,-1.0,0.75,6050.0,1950.0,3.0
13896031,16,35_L-WS1_R-NL0,0,4.0,2.0,10.0,20.0,1,0,-2.0,-10.0,-1,1.0,0.8,5477.0,2523.0,3.0
13896031,17,27_L-WL0_R-NS0,0,4.0,2.0,20.0,10.0,0,0,-2.0,10.0,0,-1.0,0.85,5238.0,2762.0,3.0
13896031,19,08_L-ES0_R-EL0,1,2.0,2.0,10.0,20.0,0,0,0.0,-10.0,0,-1.0,0.95,4924.0,3076.0,3.0
13896031,20,50_L-NM0_R-WS1,1,2.0,4.0,15.0,10.0,0,1,2.0,5.0,1,1.0,1.0,6347.0,1653.0,3.0
1504237,1,25_L-WM0_R-NM0,0,4.0,2.0,15.0,15.0,0,0,-2.0,0.0,0,0.0,0.05,5356.0,2644.0,2.0
1504237,2,33_L-WS0_R-NL1,1,4.0,2.0,10.0,20.0,0,1,-2.0,-10.0,1,-1.0,0.1,6657.0,1343.0,4.0
1504237,3,15_L-NL0_R-WM0,1,2.0,4.0,20.0,15.0,0,0,2.0,5.0,0,1.0,0.15,5933.0,2067.0,2.0
1504237,4,16_L-NL0_R-WS0,1,2.0,4.0,20.0,10.0,0,0,2.0,10.0,0,1.0,0.2,4571.0,3429.0,2.0
1504237,5,59_L-WM0_R-NM1,1,4.0,2.0,15.0,15.0,0,1,-2.0,0.0,1,1.0,0.25,3568.0,4432.0,4.0
1504237,6,61_L-WM1_R-NL0,0,4.0,2.0,15.0,20.0,1,0,-2.0,-5.0,-1,1.0,0.3,6414.0,1586.0,4.0
1504237,7,14_L-WS1_R-NM0,0,4.0,2.0,10.0,15.0,1,0,-2.0,-5.0,-1,-1.0,0.35,6597.0,1403.0,5.0
1504237,8,32_L-WS0_R-NL0,0,4.0,2.0,10.0,20.0,0,0,-2.0,-10.0,0,-1.0,0.4,6606.0,1394.0,2.0
1504237,9,42_L-EM1_R-EM0,0,2.0,2.0,15.0,15.0,1,0,0.0,0.0,-1,-1.0,0.45,6769.0,1231.0,4.0
1504237,10,04_L-EL1_R-ES0,0,2.0,2.0,20.0,10.0,1,0,0.0,10.0,-1,-1.0,0.5,6636.0,1364.0,5.0
1504237,11,34_L-WS0_R-NM0,0,4.0,2.0,10.0,15.0,0,0,-2.0,-5.0,0,-1.0,0.55,5911.0,2089.0,2.0
1504237,12,49_L-NM0_R-WM1,1,2.0,4.0,15.0,15.0,0,1,2.0,0.0,1,-1.0,0.6,5572.0,2428.0,5.0
1504237,13,47_L-NL1_R-WM0,0,2.0,4.0,20.0,15.0,1,0,2.0,5.0,-1,1.0,0.65,5975.0,2025.0,4.0
1504237,14,52_L-NM1_R-WM0,0,2.0,4.0,15.0,15.0,1,0,2.0,0.0,-1,-1.0,0.7,4412.0,3588.0,4.0
1504237,15,54_L-NS0_R-WM1,1,2.0,4.0,10.0,15.0,0,1,2.0,-5.0,1,-1.0,0.75,6796.0,1204.0,5.0
1504237,16,18_L-NL1_R-WS0,0,2.0,4.0,20.0,10.0,1,0,2.0,10.0,-1,1.0,0.8,6109.0,1891.0,4.0
1504237,17,44_L-ES0_R-EM1,1,2.0,2.0,10.0,15.0,0,1,0.0,-5.0,1,-1.0,0.85,6550.0,1450.0,4.0
1504237,18,48_L-NM0_R-WL1,1,2.0,4.0,15.0,20.0,0,1,2.0,-5.0,1,1.0,0.9,6275.0,1725.0,5.0
1504237,19,50_L-NM0_R-WS1,1,2.0,4.0,15.0,10.0,0,1,2.0,5.0,1,1.0,0.95,6294.0,1706.0,5.0
1504237,20,62_L-WM1_R-NM0,0,4.0,2.0,15.0,15.0,1,0,-2.0,0.0,-1,1.0,1.0,2813.0,5187.0,4.0
15101013,1,09_L-ES0_R-EL1,1,2.0,2.0,10.0,20.0,0,1,0.0,-10.0,1,0.0,0.05,5096.0,2904.0,4.0
15101013,2,31_L-WM0_R-NS0,0,4.0,2.0,15.0,10.0,0,0,-2.0,5.0,0,1.0,0.1,5719.0,2281.0,2.0
15101013,3,35_L-WS1_R-NL0,0,4.0,2.0,10.0,20.0,1,0,-2.0,-10.0,-1,-1.0,0.15,5997.0,2003.0,4.0
15101013,4,29_L-WL1_R-NS0,0,4.0,2.0,20.0,10.0,1,0,-2.0,10.0,-1,-1.0,0.2,5739.0,2261.0,4.0
15101013,5,61_L-WM1_R-NL0,0,4.0,2.0,15.0,20.0,1,0,-2.0,-5.0,-1,-1.0,0.25,5815.0,2185.0,4.0
15101013,6,19_L-NM0_R-WL0,1,2.0,4.0,15.0,20.0,0,0,2.0,-5.0,0,-1.0,0.3,2611.0,5389.0,2.0
15101013,7,38_L-EM0_R-EL1,1,2.0,2.0,15.0,20.0,0,1,0.0,-5.0,1,1.0,0.35,5898.0,2102.0,4.0
15101013,8,45_L-ES1_R-EM0,0,2.0,2.0,10.0,15.0,1,0,0.0,-5.0,-1,1.0,0.4,6615.0,1385.0,4.0
15101013,9,49_L-NM0_R-WM1,1,2.0,4.0,15.0,15.0,0,1,2.0,0.0,1,-1.0,0.45,5467.0,2533.0,4.0
15101013,10,53_L-NM1_R-WS0,0,2.0,4.0,15.0,10.0,1,0,2.0,5.0,-1,1.0,0.5,5550.0,2450.0,4.0
15101013,11,42_L-EM1_R-EM0,0,2.0,2.0,15.0,15.0,1,0,0.0,0.0,-1,-1.0,0.55,5848.0,2152.0,4.0
15101013,12,33_L-WS0_R-NL1,1,4.0,2.0,10.0,20.0,0,1,-2.0,-10.0,1,-1.0,0.6,5025.0,2975.0,4.0
15101013,13,14_L-WS1_R-NM0,0,4.0,2.0,10.0,15.0,1,0,-2.0,-5.0,-1,1.0,0.65,4079.0,3921.0,4.0
15101013,14,55_L-NS1_R-WM0,0,2.0,4.0,10.0,15.0,1,0,2.0,-5.0,-1,-1.0,0.7,5160.0,2840.0,4.0
15101013,15,27_L-WL0_R-NS0,0,4.0,2.0,20.0,10.0,0,0,-2.0,10.0,0,-1.0,0.75,4445.0,3555.0,2.0
15101013,16,43_L-EM1_R-ES0,0,2.0,2.0,15.0,10.0,1,0,0.0,5.0,-1,-1.0,0.8,5728.0,2272.0,4.0
15101013,18,46_L-NL0_R-WM1,1,2.0,4.0,20.0,15.0,0,1,2.0,5.0,1,-1.0,0.9,5747.0,2253.0,4.0
15101013,19,26_L-WL0_R-NM0,0,4.0,2.0,20.0,15.0,0,0,-2.0,5.0,0,1.0,0.95,5063.0,2937.0,2.0
15101013,20,62_L-WM1_R-NM0,0,4.0,2.0,15.0,15.0,1,0,-2.0,0.0,-1,-1.0,1.0,5842.0,2158.0,4.0
15374836,1,26_L-WL0_R-NM0,1,4.0,2.0,20.0,15.0,0,0,-2.0,5.0,0,0.0,0.05,6394.0,1606.0,3.0
15374836,2,08_L-ES0_R-EL0,0,2.0,2.0,10.0,20.0,0,0,0.0,-10.0,0,1.0,0.1,5351.0,2649.0,4.0
15374836,3,54_L-NS0_R-WM1,1,2.0,4.0,10.0,15.0,0,1,2.0,-5.0,1,-1.0,0.15,5667.0,2333.0,5.0
15374836,4,40_L-EM0_R-ES1,1,2.0,2.0,15.0,10.0,0,1,0.0,5.0,1,1.0,0.2,5347.0,2653.0,5.0
15374836,5,09_L-ES0_R-EL1,1,2.0,2.0,10.0,20.0,0,1,0.0,-10.0,1,1.0,0.25,4810.0,3190.0,5.0
15374836,6,36_L-EL0_R-EM1,1,2.0,2.0,20.0,15.0,0,1,0.0,5.0,1,1.0,0.3,6060.0,1940.0,5.0
15374836,7,19_L-NM0_R-WL0,1,2.0,4.0,15.0,20.0,0,0,2.0,-5.0,0,1.0,0.35,4569.0,3431.0,2.0
15374836,8,04_L-EL1_R-ES0,0,2.0,2.0,20.0,10.0,1,0,0.0,10.0,-1,1.0,0.4,4731.0,3269.0,4.0
15374836,9,47_L-NL1_R-WM0,0,2.0,4.0,20.0,15.0,1,0,2.0,5.0,-1,-1.0,0.45,5199.0,2801.0,2.0
15374836,10,52_L-NM1_R-WM0,0,2.0,4.0,15.0,15.0,1,0,2.0,0.0,-1,-1.0,0.5,5072.0,2928.0,5.0
15374836,11,58_L-WM0_R-NL1,1,4.0,2.0,15.0,20.0,0,1,-2.0,-5.0,1,-1.0,0.55,6355.0,1645.0,5.0
15374836,12,33_L-WS0_R-NL1,1,4.0,2.0,10.0,20.0,0,1,-2.0,-10.0,1,1.0,0.6,6059.0,1941.0,5.0
15374836,13,55_L-NS1_R-WM0,0,2.0,4.0,10.0,15.0,1,0,2.0,-5.0,-1,1.0,0.65,6343.0,1657.0,5.0
15374836,14,49_L-NM0_R-WM1,1,2.0,4.0,15.0,15.0,0,1,2.0,0.0,1,-1.0,0.7,5580.0,2420.0,5.0
15374836,15,06_L-EM0_R-EM0,0,2.0,2.0,15.0,15.0,0,0,0.0,0.0,0,1.0,0.75,5746.0,2254.0,2.0
15374836,16,48_L-NM0_R-WL1,1,2.0,4.0,15.0,20.0,0,1,2.0,-5.0,1,-1.0,0.8,6519.0,1481.0,5.0
15374836,18,29_L-WL1_R-NS0,0,4.0,2.0,20.0,10.0,1,0,-2.0,10.0,-1,1.0,0.9,6603.0,1397.0,5.0
15374836,19,12_L-NM0_R-WM0,1,2.0,4.0,15.0,15.0,0,0,2.0,0.0,0,-1.0,0.95,5796.0,2204.0,2.0
15374836,20,53_L-NM1_R-WS0,0,2.0,4.0,15.0,10.0,1,0,2.0,5.0,-1,1.0,1.0,6237.0,1763.0,5.0
15413239,1,47_L-NL1_R-WM0,0,2.0,4.0,20.0,15.0,1,0,2.0,5.0,-1,0.0,0.05,3908.0,4092.0,4.0
15413239,2,53_L-NM1_R-WS0,0,2.0,4.0,15.0,10.0,1,0,2.0,5.0,-1,-1.0,0.1,4919.0,3081.0,4.0
15413239,3,25_L-WM0_R-NM0,0,4.0,2.0,15.0,15.0,0,0,-2.0,0.0,0,-1.0,0.15,4936.0,3064.0,4.0
15413239,4,06_L-EM0_R-EM0,1,2.0,2.0,15.0,15.0,0,0,0.0,0.0,0,-1.0,0.2,4364.0,3636.0,3.0
15413239,5,37_L-EL1_R-EM0,0,2.0,2.0,20.0,15.0,1,0,0.0,5.0,-1,1.0,0.25,5907.0,2093.0,4.0
15413239,6,49_L-NM0_R-WM1,1,2.0,4.0,15.0,15.0,0,1,2.0,0.0,1,-1.0,0.3,4781.0,3219.0,4.0
15413239,7,55_L-NS1_R-WM0,0,2.0,4.0,10.0,15.0,1,0,2.0,-5.0,-1,1.0,0.35,5622.0,2378.0,4.0
15413239,8,16_L-NL0_R-WS0,1,2.0,4.0,20.0,10.0,0,0,2.0,10.0,0,-1.0,0.4,5286.0,2714.0,4.0
15413239,9,11_L-ES1_R-EL0,0,2.0,2.0,10.0,20.0,1,0,0.0,-10.0,-1,1.0,0.45,5444.0,2556.0,4.0
15413239,10,12_L-NM0_R-WM0,1,2.0,4.0,15.0,15.0,0,0,2.0,0.0,0,-1.0,0.5,5016.0,2984.0,4.0
15413239,11,61_L-WM1_R-NL0,0,4.0,2.0,15.0,20.0,1,0,-2.0,-5.0,-1,1.0,0.55,5602.0,2398.0,5.0
15413239,12,54_L-NS0_R-WM1,1,2.0,4.0,10.0,15.0,0,1,2.0,-5.0,1,-1.0,0.6,6443.0,1557.0,5.0
15413239,13,27_L-WL0_R-NS0,0,4.0,2.0,20.0,10.0,0,0,-2.0,10.0,0,1.0,0.65,4954.0,3046.0,4.0
15413239,14,46_L-NL0_R-WM1,1,2.0,4.0,20.0,15.0,0,1,2.0,5.0,1,-1.0,0.7,4964.0,3036.0,4.0
15413239,15,28_L-WL0_R-NS1,1,4.0,2.0,20.0,10.0,0,1,-2.0,10.0,1,1.0,0.75,5742.0,2258.0,4.0
15413239,16,35_L-WS1_R-NL0,0,4.0,2.0,10.0,20.0,1,0,-2.0,-10.0,-1,1.0,0.8,5473.0,2527.0,5.0
15413239,17,17_L-NL0_R-WS1,1,2.0,4.0,20.0,10.0,0,1,2.0,10.0,1,-1.0,0.85,6127.0,1873.0,4.0
15413239,18,07_L-EM0_R-ES0,1,2.0,2.0,15.0,10.0,0,0,0.0,5.0,0,1.0,0.9,1930.0,6070.0,3.0
15413239,19,15_L-NL0_R-WM0,1,2.0,4.0,20.0,15.0,0,0,2.0,5.0,0,1.0,0.95,4222.0,3778.0,4.0
15413239,20,32_L-WS0_R-NL0,0,4.0,2.0,10.0,20.0,0,0,-2.0,-10.0,0,1.0,1.0,4419.0,3581.0,4.0
15650954,1,44_L-ES0_R-EM1,1,2.0,2.0,10.0,15.0,0,1,0.0,-5.0,1,0.0,0.05,4121.0,3879.0,4.0
15650954,2,31_L-WM0_R-NS0,1,4.0,2.0,15.0,10.0,0,0,-2.0,5.0,0,1.0,0.1,4160.0,3840.0,3.0
15650954,3,16_L-NL0_R-WS0,1,2.0,4.0,20.0,10.0,0,0,2.0,10.0,0,1.0,0.15,3722.0,4278.0,3.0
15650954,4,45_L-ES1_R-EM0,0,2.0,2.0,10.0,15.0,1,0,0.0,-5.0,-1,1.0,0.2,3891.0,4109.0,4.0
15650954,5,20_L-NM0_R-WS0,1,2.0,4.0,15.0,10.0,0,0,2.0,5.0,0,-1.0,0.25,3278.0,4722.0,2.0
15650954,6,26_L-WL0_R-NM0,1,4.0,2.0,20.0,15.0,0,0,-2.0,5.0,0,1.0,0.3,1729.0,6271.0,2.0
15650954,7,12_L-NM0_R-WM0,0,2.0,4.0,15.0,15.0,0,0,2.0,0.0,0,1.0,0.35,3003.0,4997.0,3.0
15650954,8,05_L-EM0_R-EL0,0,2.0,2.0,15.0,20.0,0,0,0.0,-5.0,0,-1.0,0.4,5247.0,2753.0,3.0
15650954,9,38_L-EM0_R-EL1,1,2.0,2.0,15.0,20.0,0,1,0.0,-5.0,1,-1.0,0.45,4476.0,3524.0,3.0
15650954,10,24_L-NS1_R-WL0,0,2.0,4.0,10.0,20.0,1,0,2.0,-10.0,-1,1.0,0.5,5530.0,2470.0,4.0
15650954,11,42_L-EM1_R-EM0,0,2.0,2.0,15.0,15.0,1,0,0.0,0.0,-1,-1.0,0.55,5480.0,2520.0,4.0
15650954,12,30_L-WM0_R-NL0,1,4.0,2.0,15.0,20.0,0,0,-2.0,-5.0,0,-1.0,0.6,4359.0,3641.0,2.0
15650954,13,59_L-WM0_R-NM1,1,4.0,2.0,15.0,15.0,0,1,-2.0,0.0,1,1.0,0.65,4527.0,3473.0,4.0
15650954,14,01_L-EL0_R-EM0,1,2.0,2.0,20.0,15.0,0,0,0.0,5.0,0,1.0,0.7,4530.0,3470.0,3.0
15650954,15,18_L-NL1_R-WS0,0,2.0,4.0,20.0,10.0,1,0,2.0,10.0,-1,1.0,0.75,5293.0,2707.0,4.0
15650954,16,58_L-WM0_R-NL1,1,4.0,2.0,15.0,20.0,0,1,-2.0,-5.0,1,-1.0,0.8,6138.0,1862.0,4.0
15650954,17,43_L-EM1_R-ES0,0,2.0,2.0,15.0,10.0,1,0,0.0,5.0,-1,1.0,0.85,5720.0,2280.0,4.0
15650954,18,17_L-NL0_R-WS1,1,2.0,4.0,20.0,10.0,0,1,2.0,10.0,1,-1.0,0.9,4632.0,3368.0,5.0
15650954,19,36_L-EL0_R-EM1,1,2.0,2.0,20.0,15.0,0,1,0.0,5.0,1,1.0,0.95,4661.0,3339.0,4.0
15650954,20,28_L-WL0_R-NS1,1,4.0,2.0,20.0,10.0,0,1,-2.0,10.0,1,1.0,1.0,4593.0,3407.0,4.0
15876264,1,25_L-WM0_R-NM0,0,4.0,2.0,15.0,15.0,0,0,-2.0,0.0,0,0.0,0.05,5062.0,2938.0,5.0
15876264,2,28_L-WL0_R-NS1,1,4.0,2.0,20.0,10.0,0,1,-2.0,10.0,1,-1.0,0.1,5302.0,2698.0,5.0
15876264,3,40_L-EM0_R-ES1,1,2.0,2.0,15.0,10.0,0,1,0.0,5.0,1,1.0,0.15,5425.0,2575.0,5.0
15876264,4,49_L-NM0_R-WM1,1,2.0,4.0,15.0,15.0,0,1,2.0,0.0,1,1.0,0.2,5411.0,2589.0,5.0
15876264,5,45_L-ES1_R-EM0,0,2.0,2.0,10.0,15.0,1,0,0.0,-5.0,-1,1.0,0.25,5925.0,2075.0,4.0
15876264,6,54_L-NS0_R-WM1,1,2.0,4.0,10.0,15.0,0,1,2.0,-5.0,1,-1.0,0.3,6028.0,1972.0,5.0
15876264,7,37_L-EL1_R-EM0,0,2.0,2.0,20.0,15.0,1,0,0.0,5.0,-1,1.0,0.35,5662.0,2338.0,4.0
15876264,8,24_L-NS1_R-WL0,0,2.0,4.0,10.0,20.0,1,0,2.0,-10.0,-1,-1.0,0.4,5515.0,2485.0,4.0
15876264,9,55_L-NS1_R-WM0,0,2.0,4.0,10.0,15.0,1,0,2.0,-5.0,-1,-1.0,0.45,4595.0,3405.0,4.0
15876264,10,13_L-WS0_R-NM1,1,4.0,2.0,10.0,15.0,0,1,-2.0,-5.0,1,-1.0,0.5,4711.0,3289.0,4.0
15876264,11,32_L-WS0_R-NL0,0,4.0,2.0,10.0,20.0,0,0,-2.0,-10.0,0,1.0,0.55,4775.0,3225.0,4.0
15876264,12,07_L-EM0_R-ES0,0,2.0,2.0,15.0,10.0,0,0,0.0,5.0,0,-1.0,0.6,3877.0,4123.0,2.0
15876264,13,21_L-NS0_R-WL0,1,2.0,4.0,10.0,20.0,0,0,2.0,-10.0,0,-1.0,0.65,4983.0,3017.0,3.0
15876264,14,38_L-EM0_R-EL1,1,2.0,2.0,15.0,20.0,0,1,0.0,-5.0,1,1.0,0.7,5026.0,2974.0,4.0
15876264,15,30_L-WM0_R-NL0,0,4.0,2.0,15.0,20.0,0,0,-2.0,-5.0,0,1.0,0.75,5679.0,2321.0,3.0
15876264,16,51_L-NM1_R-WL0,0,2.0,4.0,15.0,20.0,1,0,2.0,-5.0,-1,-1.0,0.8,6656.0,1344.0,4.0
15876264,17,44_L-ES0_R-EM1,1,2.0,2.0,10.0,15.0,0,1,0.0,-5.0,1,-1.0,0.85,6190.0,1810.0,4.0
15876264,18,34_L-WS0_R-NM0,0,4.0,2.0,10.0,15.0,0,0,-2.0,-5.0,0,1.0,0.9,6276.0,1724.0,3.0
15876264,19,50_L-NM0_R-WS1,1,2.0,4.0,15.0,10.0,0,1,2.0,5.0,1,-1.0,0.95,5951.0,2049.0,5.0
15876264,20,43_L-EM1_R-ES0,0,2.0,2.0,15.0,10.0,1,0,0.0,5.0,-1,1.0,1.0,5213.0,2787.0,4.0
16577918,1,32_L-WS0_R-NL0,0,4.0,2.0,10.0,20.0,0,0,-2.0,-10.0,0,0.0,0.05,4550.0,3450.0,3.0
16577918,2,23_L-NS0_R-WM0,1,2.0,4.0,10.0,15.0,0,0,2.0,-5.0,0,-1.0,0.1,3725.0,4275.0,4.0
16577918,3,43_L-EM1_R-ES0,0,2.0,2.0,15.0,10.0,1,0,0.0,5.0,-1,1.0,0.15,4854.0,3146.0,4.0
16577918,4,10_L-ES0_R-EM0,0,2.0,2.0,10.0,15.0,0,0,0.0,-5.0,0,-1.0,0.2,4071.0,3929.0,3.0
16577918,5,31_L-WM0_R-NS0,0,4.0,2.0,15.0,10.0,0,0,-2.0,5.0,0,-1.0,0.25,4209.0,3791.0,3.0
16577918,6,34_L-WS0_R-NM0,0,4.0,2.0,10.0,15.0,0,0,-2.0,-5.0,0,-1.0,0.3,4961.0,3039.0,4.0
16577918,8,07_L-EM0_R-ES0,1,2.0,2.0,15.0,10.0,0,0,0.0,5.0,0,-1.0,0.4,3909.0,4091.0,2.0
16577918,9,15_L-NL0_R-WM0,1,2.0,4.0,20.0,15.0,0,0,2.0,5.0,0,1.0,0.45,5199.0,2801.0,4.0
16577918,10,58_L-WM0_R-NL1,1,4.0,2.0,15.0,20.0,0,1,-2.0,-5.0,1,1.0,0.5,5113.0,2887.0,3.0
16577918,11,21_L-NS0_R-WL0,0,2.0,4.0,10.0,20.0,0,0,2.0,-10.0,0,1.0,0.55,4521.0,3479.0,4.0
16577918,12,49_L-NM0_R-WM1,1,2.0,4.0,15.0,15.0,0,1,2.0,0.0,1,-1.0,0.6,4701.0,3299.0,4.0
16577918,13,05_L-EM0_R-EL0,0,2.0,2.0,15.0,20.0,0,0,0.0,-5.0,0,1.0,0.65,1730.0,6270.0,2.0
16577918,14,40_L-EM0_R-ES1,1,2.0,2.0,15.0,10.0,0,1,0.0,5.0,1,-1.0,0.7,4891.0,3109.0,4.0
16577918,15,35_L-WS1_R-NL0,0,4.0,2.0,10.0,20.0,1,0,-2.0,-10.0,-1,1.0,0.75,4270.0,3730.0,4.0
16577918,16,47_L-NL1_R-WM0,1,2.0,4.0,20.0,15.0,1,0,2.0,5.0,-1,-1.0,0.8,1784.0,6216.0,4.0
16577918,17,59_L-WM0_R-NM1,1,4.0,2.0,15.0,15.0,0,1,-2.0,0.0,1,1.0,0.85,3467.0,4533.0,4.0
16577918,18,51_L-NM1_R-WL0,0,2.0,4.0,15.0,20.0,1,0,2.0,-5.0,-1,1.0,0.9,4203.0,3797.0,3.0
16577918,19,57_L-WL1_R-NM0,0,4.0,2.0,20.0,15.0,1,0,-2.0,5.0,-1,-1.0,0.95,4016.0,3984.0,4.0
16577918,20,62_L-WM1_R-NM0,0,4.0,2.0,15.0,15.0,1,0,-2.0,0.0,-1,-1.0,1.0,5392.0,2608.0,4.0
1695179,1,61_L-WM1_R-NL0,0,4.0,2.0,15.0,20.0,1,0,-2.0,-5.0,-1,0.0,0.05,5131.0,2869.0,4.0
1695179,2,18_L-NL1_R-WS0,0,2.0,4.0,20.0,10.0,1,0,2.0,10.0,-1,-1.0,0.1,4207.0,3793.0,4.0
1695179,3,23_L-NS0_R-WM0,0,2.0,4.0,10.0,15.0,0,0,2.0,-5.0,0,-1.0,0.15,5330.0,2670.0,3.0
1695179,4,45_L-ES1_R-EM0,0,2.0,2.0,10.0,15.0,1,0,0.0,-5.0,-1,-1.0,0.2,4810.0,3190.0,4.0
1695179,5,16_L-NL0_R-WS0,1,2.0,4.0,20.0,10.0,0,0,2.0,10.0,0,-1.0,0.25,5374.0,2626.0,4.0
1695179,6,52_L-NM1_R-WM0,0,2.0,4.0,15.0,15.0,1,0,2.0,0.0,-1,1.0,0.3,4778.0,3222.0,4.0
1695179,7,21_L-NS0_R-WL0,0,2.0,4.0,10.0,20.0,0,0,2.0,-10.0,0,-1.0,0.35,5578.0,2422.0,4.0
1695179,8,09_L-ES0_R-EL1,1,2.0,2.0,10.0,20.0,0,1,0.0,-10.0,1,-1.0,0.4,4346.0,3654.0,4.0
1695179,9,35_L-WS1_R-NL0,0,4.0,2.0,10.0,20.0,1,0,-2.0,-10.0,-1,1.0,0.45,4613.0,3387.0,4.0
1695179,10,42_L-EM1_R-EM0,0,2.0,2.0,15.0,15.0,1,0,0.0,0.0,-1,-1.0,0.5,5313.0,2687.0,4.0
1695179,11,01_L-EL0_R-EM0,1,2.0,2.0,20.0,15.0,0,0,0.0,5.0,0,-1.0,0.55,4674.0,3326.0,4.0
1695179,13,29_L-WL1_R-NS0,0,4.0,2.0,20.0,10.0,1,0,-2.0,10.0,-1,1.0,0.65,4880.0,3120.0,4.0
1695179,14,34_L-WS0_R-NM0,0,4.0,2.0,10.0,15.0,0,0,-2.0,-5.0,0,-1.0,0.7,4876.0,3124.0,4.0
1695179,15,58_L-WM0_R-NL1,1,4.0,2.0,15.0,20.0,0,1,-2.0,-5.0,1,-1.0,0.75,5014.0,2986.0,4.0
1695179,16,63_L-WM1_R-NS0,0,4.0,2.0,15.0,10.0,1,0,-2.0,5.0,-1,1.0,0.8,4879.0,3121.0,4.0
1695179,17,32_L-WS0_R-NL0,0,4.0,2.0,10.0,20.0,0,0,-2.0,-10.0,0,-1.0,0.85,4947.0,3053.0,4.0
1695179,18,27_L-WL0_R-NS0,1,4.0,2.0,20.0,10.0,0,0,-2.0,10.0,0,-1.0,0.9,3833.0,4167.0,4.0
1695179,19,46_L-NL0_R-WM1,1,2.0,4.0,20.0,15.0,0,1,2.0,5.0,1,1.0,0.95,3795.0,4205.0,4.0
1695179,20,36_L-EL0_R-EM1,1,2.0,2.0,20.0,15.0,0,1,0.0,5.0,1,1.0,1.0,5145.0,2855.0,4.0
16968912,1,49_L-NM0_R-WM1,1,2.0,4.0,15.0,15.0,0,1,2.0,0.0,1,0.0,0.05,2835.0,5165.0,4.0
16968912,2,42_L-EM1_R-EM0,0,2.0,2.0,15.0,15.0,1,0,0.0,0.0,-1,1.0,0.1,4576.0,3424.0,4.0
16968912,3,21_L-NS0_R-WL0,1,2.0,4.0,10.0,20.0,0,0,2.0,-10.0,0,-1.0,0.15,3337.0,4663.0,4.0
16968912,4,03_L-EL0_R-ES1,1,2.0,2.0,20.0,10.0,0,1,0.0,10.0,1,1.0,0.2,5424.0,2576.0,4.0
16968912,5,43_L-EM1_R-ES0,0,2.0,2.0,15.0,10.0,1,0,0.0,5.0,-1,1.0,0.25,4239.0,3761.0,4.0
16968912,6,35_L-WS1_R-NL0,0,4.0,2.0,10.0,20.0,1,0,-2.0,-10.0,-1,-1.0,0.3,5616.0,2384.0,4.0
16968912,7,32_L-WS0_R-NL0,0,4.0,2.0,10.0,20.0,0,0,-2.0,-10.0,0,-1.0,0.35,5407.0,2593.0,4.0
16968912,8,29_L-WL1_R-NS0,0,4.0,2.0,20.0,10.0,1,0,-2.0,10.0,-1,-1.0,0.4,5584.0,2416.0,4.0
16968912,9,48_L-NM0_R-WL1,1,2.0,4.0,15.0,20.0,0,1,2.0,-5.0,1,-1.0,0.45,5808.0,2192.0,4.0
16968912,10,07_L-EM0_R-ES0,0,2.0,2.0,15.0,10.0,0,0,0.0,5.0,0,1.0,0.5,10.0,7990.0,4.0
16968912,11,23_L-NS0_R-WM0,1,2.0,4.0,10.0,15.0,0,0,2.0,-5.0,0,-1.0,0.55,3632.0,4368.0,4.0
16968912,12,14_L-WS1_R-NM0,0,4.0,2.0,10.0,15.0,1,0,-2.0,-5.0,-1,1.0,0.6,5950.0,2050.0,4.0
16968912,13,27_L-WL0_R-NS0,0,4.0,2.0,20.0,10.0,0,0,-2.0,10.0,0,-1.0,0.65,5929.0,2071.0,4.0
16968912,14,24_L-NS1_R-WL0,1,2.0,4.0,10.0,20.0,1,0,2.0,-10.0,-1,-1.0,0.7,1563.0,6437.0,4.0
16968912,15,54_L-NS0_R-WM1,1,2.0,4.0,10.0,15.0,0,1,2.0,-5.0,1,1.0,0.75,4385.0,3615.0,4.0
16968912,16,13_L-WS0_R-NM1,1,4.0,2.0,10.0,15.0,0,1,-2.0,-5.0,1,1.0,0.8,6566.0,1434.0,4.0
16968912,17,40_L-EM0_R-ES1,1,2.0,2.0,15.0,10.0,0,1,0.0,5.0,1,1.0,0.85,6383.0,1617.0,4.0
16968912,18,57_L-WL1_R-NM0,0,4.0,2.0,20.0,15.0,1,0,-2.0,5.0,-1,1.0,0.9,6097.0,1903.0,4.0
16968912,19,59_L-WM0_R-NM1,1,4.0,2.0,15.0,15.0,0,1,-2.0,0.0,1,-1.0,0.95,5979.0,2021.0,4.0
16968912,20,61_L-WM1_R-NL0,0,4.0,2.0,15.0,20.0,1,0,-2.0,-5.0,-1,1.0,1.0,5733.0,2267.0,4.0
17066130,1,38_L-EM0_R-EL1,1,2.0,2.0,15.0,20.0,0,1,0.0,-5.0,1,0.0,0.05,2308.0,5692.0,3.0
17066130,2,58_L-WM0_R-NL1,0,4.0,2.0,15.0,20.0,0,1,-2.0,-5.0,1,1.0,0.1,1230.0,6770.0,3.0
17066130,3,28_L-WL0_R-NS1,0,4.0,2.0,20.0,10.0,0,1,-2.0,10.0,1,-1.0,0.15,4771.0,3229.0,3.0
17066130,4,18_L-NL1_R-WS0,1,2.0,4.0,20.0,10.0,1,0,2.0,10.0,-1,-1.0,0.2,6143.0,1857.0,3.0
17066130,5,34_L-WS0_R-NM0,0,4.0,2.0,10.0,15.0,0,0,-2.0,-5.0,0,1.0,0.25,5697.0,2303.0,3.0
17066130,6,63_L-WM1_R-NS0,1,4.0,2.0,15.0,10.0,1,0,-2.0,5.0,-1,-1.0,0.3,4933.0,3067.0,3.0
17066130,7,49_L-NM0_R-WM1,0,2.0,4.0,15.0,15.0,0,1,2.0,0.0,1,1.0,0.35,4061.0,3939.0,3.0
17066130,8,10_L-ES0_R-EM0,0,2.0,2.0,10.0,15.0,0,0,0.0,-5.0,0,-1.0,0.4,5518.0,2482.0,4.0
17066130,9,62_L-WM1_R-NM0,1,4.0,2.0,15.0,15.0,1,0,-2.0,0.0,-1,-1.0,0.45,3151.0,4849.0,4.0
17066130,10,12_L-NM0_R-WM0,0,2.0,4.0,15.0,15.0,0,0,2.0,0.0,0,1.0,0.5,5315.0,2685.0,3.0
17066130,11,42_L-EM1_R-EM0,1,2.0,2.0,15.0,15.0,1,0,0.0,0.0,-1,-1.0,0.55,5192.0,2808.0,4.0
17066130,12,37_L-EL1_R-EM0,1,2.0,2.0,20.0,15.0,1,0,0.0,5.0,-1,1.0,0.6,4565.0,3435.0,4.0
17066130,13,23_L-NS0_R-WM0,0,2.0,4.0,10.0,15.0,0,0,2.0,-5.0,0,1.0,0.65,5271.0,2729.0,4.0
17066130,14,43_L-EM1_R-ES0,1,2.0,2.0,15.0,10.0,1,0,0.0,5.0,-1,-1.0,0.7,6181.0,1819.0,4.0
17066130,15,33_L-WS0_R-NL1,0,4.0,2.0,10.0,20.0,0,1,-2.0,-10.0,1,1.0,0.75,4345.0,3655.0,4.0
17066130,16,17_L-NL0_R-WS1,0,2.0,4.0,20.0,10.0,0,1,2.0,10.0,1,-1.0,0.8,4990.0,3010.0,4.0
17066130,17,13_L-WS0_R-NM1,0,4.0,2.0,10.0,15.0,0,1,-2.0,-5.0,1,-1.0,0.85,4090.0,3910.0,4.0
17066130,18,51_L-NM1_R-WL0,1,2.0,4.0,15.0,20.0,1,0,2.0,-5.0,-1,-1.0,0.9,4404.0,3596.0,4.0
17066130,19,29_L-WL1_R-NS0,1,4.0,2.0,20.0,10.0,1,0,-2.0,10.0,-1,1.0,0.95,3748.0,4252.0,4.0
17066130,20,06_L-EM0_R-EM0,1,2.0,2.0,15.0,15.0,0,0,0.0,0.0,0,1.0,1.0,5458.0,2542.0,3.0
17731258,1,56_L-WL0_R-NM1,1,4.0,2.0,20.0,15.0,0,1,-2.0,5.0,1,0.0,0.05,3313.0,4687.0,4.0
17731258,2,03_L-EL0_R-ES1,0,2.0,2.0,20.0,10.0,0,1,0.0,10.0,1,1.0,0.1,4611.0,3389.0,4.0
17731258,4,42_L-EM1_R-EM0,0,2.0,2.0,15.0,15.0,1,0,0.0,0.0,-1,-1.0,0.2,5281.0,2719.0,4.0
17731258,5,20_L-NM0_R-WS0,0,2.0,4.0,15.0,10.0,0,0,2.0,5.0,0,-1.0,0.25,3194.0,4806.0,4.0
17731258,6,36_L-EL0_R-EM1,0,2.0,2.0,20.0,15.0,0,1,0.0,5.0,1,-1.0,0.3,5482.0,2518.0,4.0
17731258,7,16_L-NL0_R-WS0,0,2.0,4.0,20.0,10.0,0,0,2.0,10.0,0,-1.0,0.35,2777.0,5223.0,4.0
17731258,8,62_L-WM1_R-NM0,0,4.0,2.0,15.0,15.0,1,0,-2.0,0.0,-1,-1.0,0.4,3729.0,4271.0,4.0
17731258,9,21_L-NS0_R-WL0,0,2.0,4.0,10.0,20.0,0,0,2.0,-10.0,0,-1.0,0.45,2532.0,5468.0,4.0
17731258,10,32_L-WS0_R-NL0,0,4.0,2.0,10.0,20.0,0,0,-2.0,-10.0,0,-1.0,0.5,1686.0,6314.0,4.0
17731258,11,59_L-WM0_R-NM1,1,4.0,2.0,15.0,15.0,0,1,-2.0,0.0,1,-1.0,0.55,4891.0,3109.0,4.0
17731258,13,52_L-NM1_R-WM0,0,2.0,4.0,15.0,15.0,1,0,2.0,0.0,-1,1.0,0.65,3346.0,4654.0,3.0
17731258,14,08_L-ES0_R-EL0,0,2.0,2.0,10.0,20.0,0,0,0.0,-10.0,0,-1.0,0.7,2540.0,5460.0,4.0
17731258,15,58_L-WM0_R-NL1,1,4.0,2.0,15.0,20.0,0,1,-2.0,-5.0,1,-1.0,0.75,6249.0,1751.0,4.0
17731258,16,35_L-WS1_R-NL0,1,4.0,2.0,10.0,20.0,1,0,-2.0,-10.0,-1,1.0,0.8,6360.0,1640.0,4.0
17731258,17,31_L-WM0_R-NS0,1,4.0,2.0,15.0,10.0,0,0,-2.0,5.0,0,1.0,0.85,6058.0,1942.0,4.0
17731258,18,63_L-WM1_R-NS0,1,4.0,2.0,15.0,10.0,1,0,-2.0,5.0,-1,1.0,0.9,5883.0,2117.0,3.0
17731258,19,14_L-WS1_R-NM0,1,4.0,2.0,10.0,15.0,1,0,-2.0,-5.0,-1,1.0,0.95,4782.0,3218.0,3.0
17731258,20,50_L-NM0_R-WS1,1,2.0,4.0,15.0,10.0,0,1,2.0,5.0,1,1.0,1.0,5953.0,2047.0,3.0
17821050,1,14_L-WS1_R-NM0,0,4.0,2.0,10.0,15.0,1,0,-2.0,-5.0,-1,0.0,0.05,4617.0,3383.0,5.0
17821050,3,56_L-WL0_R-NM1,1,4.0,2.0,20.0,15.0,0,1,-2.0,5.0,1,-1.0,0.15,5200.0,2800.0,4.0
17821050,4,48_L-NM0_R-WL1,1,2.0,4.0,15.0,20.0,0,1,2.0,-5.0,1,1.0,0.2,5421.0,2579.0,5.0
17821050,5,17_L-NL0_R-WS1,1,2.0,4.0,20.0,10.0,0,1,2.0,10.0,1,1.0,0.25,4404.0,3596.0,5.0
17821050,6,46_L-NL0_R-WM1,1,2.0,4.0,20.0,15.0,0,1,2.0,5.0,1,1.0,0.3,5273.0,2727.0,5.0
17821050,7,24_L-NS1_R-WL0,0,2.0,4.0,10.0,20.0,1,0,2.0,-10.0,-1,1.0,0.35,2471.0,5529.0,4.0
17821050,8,61_L-WM1_R-NL0,0,4.0,2.0,15.0,20.0,1,0,-2.0,-5.0,-1,-1.0,0.4,5989.0,2011.0,5.0
17821050,9,38_L-EM0_R-EL1,1,2.0,2.0,15.0,20.0,0,1,0.0,-5.0,1,-1.0,0.45,4772.0,3228.0,4.0
17821050,10,15_L-NL0_R-WM0,1,2.0,4.0,20.0,15.0,0,0,2.0,5.0,0,1.0,0.5,5752.0,2248.0,2.0
17821050,11,11_L-ES1_R-EL0,0,2.0,2.0,10.0,20.0,1,0,0.0,-10.0,-1,1.0,0.55,5819.0,2181.0,4.0
17821050,12,51_L-NM1_R-WL0,0,2.0,4.0,15.0,20.0,1,0,2.0,-5.0,-1,-1.0,0.6,4431.0,3569.0,2.0
17821050,13,62_L-WM1_R-NM0,0,4.0,2.0,15.0,15.0,1,0,-2.0,0.0,-1,-1.0,0.65,6049.0,1951.0,5.0
17821050,14,60_L-WM0_R-NS1,1,4.0,2.0,15.0,10.0,0,1,-2.0,5.0,1,-1.0,0.7,4120.0,3880.0,4.0
17821050,16,40_L-EM0_R-ES1,1,2.0,2.0,15.0,10.0,0,1,0.0,5.0,1,1.0,0.8,4219.0,3781.0,4.0
17821050,17,21_L-NS0_R-WL0,1,2.0,4.0,10.0,20.0,0,0,2.0,-10.0,0,1.0,0.85,5985.0,2015.0,2.0
17821050,18,34_L-WS0_R-NM0,0,4.0,2.0,10.0,15.0,0,0,-2.0,-5.0,0,1.0,0.9,4003.0,3997.0,4.0
17821050,19,02_L-EL0_R-ES0,0,2.0,2.0,20.0,10.0,0,0,0.0,10.0,0,-1.0,0.95,1322.0,6678.0,4.0
17821050,20,29_L-WL1_R-NS0,0,4.0,2.0,20.0,10.0,1,0,-2.0,10.0,-1,-1.0,1.0,5992.0,2008.0,5.0
17951870,1,28_L-WL0_R-NS1,1,4.0,2.0,20.0,10.0,0,1,-2.0,10.0,1,0.0,0.05,2255.0,5745.0,4.0
17951870,2,41_L-EM1_R-EL0,0,2.0,2.0,15.0,20.0,1,0,0.0,-5.0,-1,1.0,0.1,2274.0,5726.0,4.0
17951870,3,32_L-WS0_R-NL0,0,4.0,2.0,10.0,20.0,0,0,-2.0,-10.0,0,-1.0,0.15,3369.0,4631.0,3.0
17951870,4,06_L-EM0_R-EM0,1,2.0,2.0,15.0,15.0,0,0,0.0,0.0,0,-1.0,0.2,1782.0,6218.0,3.0
17951870,5,25_L-WM0_R-NM0,0,4.0,2.0,15.0,15.0,0,0,-2.0,0.0,0,1.0,0.25,1307.0,6693.0,3.0
17951870,6,16_L-NL0_R-WS0,1,2.0,4.0,20.0,10.0,0,0,2.0,10.0,0,-1.0,0.3,1116.0,6884.0,3.0
17951870,7,46_L-NL0_R-WM1,1,2.0,4.0,20.0,15.0,0,1,2.0,5.0,1,1.0,0.35,1921.0,6079.0,4.0
17951870,8,14_L-WS1_R-NM0,0,4.0,2.0,10.0,15.0,1,0,-2.0,-5.0,-1,1.0,0.4,3575.0,4425.0,4.0
17951870,9,13_L-WS0_R-NM1,1,4.0,2.0,10.0,15.0,0,1,-2.0,-5.0,1,-1.0,0.45,2785.0,5215.0,4.0
17951870,10,59_L-WM0_R-NM1,1,4.0,2.0,15.0,15.0,0,1,-2.0,0.0,1,1.0,0.5,3788.0,4212.0,4.0
17951870,11,35_L-WS1_R-NL0,0,4.0,2.0,10.0,20.0,1,0,-2.0,-10.0,-1,1.0,0.55,3712.0,4288.0,4.0
17951870,12,27_L-WL0_R-NS0,1,4.0,2.0,20.0,10.0,0,0,-2.0,10.0,0,-1.0,0.6,2373.0,5627.0,3.0
17951870,13,26_L-WL0_R-NM0,0,4.0,2.0,20.0,15.0,0,0,-2.0,5.0,0,1.0,0.65,221.0,7779.0,3.0
17951870,14,23_L-NS0_R-WM0,1,2.0,4.0,10.0,15.0,0,0,2.0,-5.0,0,-1.0,0.7,1543.0,6457.0,3.0
17951870,15,49_L-NM0_R-WM1,1,2.0,4.0,15.0,15.0,0,1,2.0,0.0,1,1.0,0.75,3142.0,4858.0,4.0
17951870,16,36_L-EL0_R-EM1,1,2.0,2.0,20.0,15.0,0,1,0.0,5.0,1,1.0,0.8,2597.0,5403.0,4.0
17951870,17,54_L-NS0_R-WM1,1,2.0,4.0,10.0,15.0,0,1,2.0,-5.0,1,1.0,0.85,3005.0,4995.0,4.0
17951870,18,04_L-EL1_R-ES0,0,2.0,2.0,20.0,10.0,1,0,0.0,10.0,-1,1.0,0.9,2064.0,5936.0,4.0
17951870,19,24_L-NS1_R-WL0,0,2.0,4.0,10.0,20.0,1,0,2.0,-10.0,-1,-1.0,0.95,2406.0,5594.0,4.0
17951870,20,53_L-NM1_R-WS0,0,2.0,4.0,15.0,10.0,1,0,2.0,5.0,-1,-1.0,1.0,2667.0,5333.0,4.0
18060509,1,06_L-EM0_R-EM0,1,2.0,2.0,15.0,15.0,0,0,0.0,0.0,0,0.0,0.05,3822.0,4178.0,3.0
18060509,2,23_L-NS0_R-WM0,0,2.0,4.0,10.0,15.0,0,0,2.0,-5.0,0,1.0,0.1,4630.0,3370.0,4.0
18060509,3,17_L-NL0_R-WS1,0,2.0,4.0,20.0,10.0,0,1,2.0,10.0,1,-1.0,0.15,5215.0,2785.0,2.0
18060509,4,30_L-WM0_R-NL0,0,4.0,2.0,15.0,20.0,0,0,-2.0,-5.0,0,-1.0,0.2,5732.0,2268.0,4.0
18060509,5,63_L-WM1_R-NS0,1,4.0,2.0,15.0,10.0,1,0,-2.0,5.0,-1,-1.0,0.25,5998.0,2002.0,3.0
18060509,6,09_L-ES0_R-EL1,0,2.0,2.0,10.0,20.0,0,1,0.0,-10.0,1,1.0,0.3,5580.0,2420.0,3.0
18060509,7,15_L-NL0_R-WM0,1,2.0,4.0,20.0,15.0,0,0,2.0,5.0,0,-1.0,0.35,5347.0,2653.0,3.0
18060509,8,50_L-NM0_R-WS1,1,2.0,4.0,15.0,10.0,0,1,2.0,5.0,1,1.0,0.4,5298.0,2702.0,3.0
18060509,9,57_L-WL1_R-NM0,0,4.0,2.0,20.0,15.0,1,0,-2.0,5.0,-1,1.0,0.45,4498.0,3502.0,2.0
18060509,10,49_L-NM0_R-WM1,1,2.0,4.0,15.0,15.0,0,1,2.0,0.0,1,-1.0,0.5,5181.0,2819.0,4.0
18060509,11,61_L-WM1_R-NL0,0,4.0,2.0,15.0,20.0,1,0,-2.0,-5.0,-1,1.0,0.55,4647.0,3353.0,3.0
18060509,12,26_L-WL0_R-NM0,1,4.0,2.0,20.0,15.0,0,0,-2.0,5.0,0,-1.0,0.6,5314.0,2686.0,4.0
18060509,13,21_L-NS0_R-WL0,0,2.0,4.0,10.0,20.0,0,0,2.0,-10.0,0,1.0,0.65,5465.0,2535.0,4.0
18060509,14,27_L-WL0_R-NS0,1,4.0,2.0,20.0,10.0,0,0,-2.0,10.0,0,-1.0,0.7,5949.0,2051.0,4.0
18060509,15,22_L-NS0_R-WL1,1,2.0,4.0,10.0,20.0,0,1,2.0,-10.0,1,1.0,0.75,6448.0,1552.0,4.0
18060509,16,43_L-EM1_R-ES0,0,2.0,2.0,15.0,10.0,1,0,0.0,5.0,-1,1.0,0.8,5755.0,2245.0,4.0
18060509,17,34_L-WS0_R-NM0,0,4.0,2.0,10.0,15.0,0,0,-2.0,-5.0,0,-1.0,0.85,6015.0,1985.0,4.0
18060509,18,60_L-WM0_R-NS1,1,4.0,2.0,15.0,10.0,0,1,-2.0,5.0,1,-1.0,0.9,5999.0,2001.0,4.0
18060509,19,19_L-NM0_R-WL0,0,2.0,4.0,15.0,20.0,0,0,2.0,-5.0,0,1.0,0.95,5831.0,2169.0,4.0
18060509,20,36_L-EL0_R-EM1,1,2.0,2.0,20.0,15.0,0,1,0.0,5.0,1,-1.0,1.0,4580.0,3420.0,4.0
18814178,1,15_L-NL0_R-WM0,1,2.0,4.0,20.0,15.0,0,0,2.0,5.0,0,0.0,0.05,5301.0,2699.0,2.0
18814178,2,53_L-NM1_R-WS0,0,2.0,4.0,15.0,10.0,1,0,2.0,5.0,-1,1.0,0.1,5565.0,2435.0,4.0
18814178,3,08_L-ES0_R-EL0,1,2.0,2.0,10.0,20.0,0,0,0.0,-10.0,0,-1.0,0.15,1687.0,6313.0,1.0
18814178,4,27_L-WL0_R-NS0,0,4.0,2.0,20.0,10.0,0,0,-2.0,10.0,0,1.0,0.2,5494.0,2506.0,2.0
18814178,5,21_L-NS0_R-WL0,1,2.0,4.0,10.0,20.0,0,0,2.0,-10.0,0,-1.0,0.25,3207.0,4793.0,3.0
18814178,6,18_L-NL1_R-WS0,0,2.0,4.0,20.0,10.0,1,0,2.0,10.0,-1,1.0,0.3,5283.0,2717.0,4.0
18814178,7,49_L-NM0_R-WM1,1,2.0,4.0,15.0,15.0,0,1,2.0,0.0,1,-1.0,0.35,5260.0,2740.0,4.0
18814178,8,09_L-ES0_R-EL1,0,2.0,2.0,10.0,20.0,0,1,0.0,-10.0,1,1.0,0.4,3298.0,4702.0,2.0
18814178,9,40_L-EM0_R-ES1,0,2.0,2.0,15.0,10.0,0,1,0.0,5.0,1,-1.0,0.45,3524.0,4476.0,2.0
18814178,10,30_L-WM0_R-NL0,0,4.0,2.0,15.0,20.0,0,0,-2.0,-5.0,0,-1.0,0.5,3347.0,4653.0,3.0
18814178,11,04_L-EL1_R-ES0,0,2.0,2.0,20.0,10.0,1,0,0.0,10.0,-1,-1.0,0.55,5467.0,2533.0,4.0
18814178,12,14_L-WS1_R-NM0,0,4.0,2.0,10.0,15.0,1,0,-2.0,-5.0,-1,-1.0,0.6,5918.0,2082.0,5.0
18814178,13,33_L-WS0_R-NL1,1,4.0,2.0,10.0,20.0,0,1,-2.0,-10.0,1,-1.0,0.65,3625.0,4375.0,4.0
18814178,14,60_L-WM0_R-NS1,1,4.0,2.0,15.0,10.0,0,1,-2.0,5.0,1,1.0,0.7,6131.0,1869.0,4.0
18814178,15,43_L-EM1_R-ES0,0,2.0,2.0,15.0,10.0,1,0,0.0,5.0,-1,1.0,0.75,6417.0,1583.0,4.0
18814178,16,44_L-ES0_R-EM1,1,2.0,2.0,10.0,15.0,0,1,0.0,-5.0,1,-1.0,0.8,6628.0,1372.0,4.0
18814178,17,22_L-NS0_R-WL1,1,2.0,4.0,10.0,20.0,0,1,2.0,-10.0,1,1.0,0.85,5312.0,2688.0,4.0
18814178,18,06_L-EM0_R-EM0,1,2.0,2.0,15.0,15.0,0,0,0.0,0.0,0,1.0,0.9,342.0,7658.0,1.0
18814178,19,50_L-NM0_R-WS1,1,2.0,4.0,15.0,10.0,0,1,2.0,5.0,1,1.0,0.95,5455.0,2545.0,4.0
18814178,20,31_L-WM0_R-NS0,0,4.0,2.0,15.0,10.0,0,0,-2.0,5.0,0,1.0,1.0,5723.0,2277.0,2.0
18948706,1,63_L-WM1_R-NS0,1,4.0,2.0,15.0,10.0,1,0,-2.0,5.0,-1,0.0,0.05,5587.0,2413.0,4.0
18948706,2,24_L-NS1_R-WL0,1,2.0,4.0,10.0,20.0,1,0,2.0,-10.0,-1,1.0,0.1,3006.0,4994.0,4.0
18948706,3,12_L-NM0_R-WM0,1,2.0,4.0,15.0,15.0,0,0,2.0,0.0,0,1.0,0.15,4107.0,3893.0,4.0
18948706,4,42_L-EM1_R-EM0,0,2.0,2.0,15.0,15.0,1,0,0.0,0.0,-1,1.0,0.2,1554.0,6446.0,5.0
18948706,5,21_L-NS0_R-WL0,1,2.0,4.0,10.0,20.0,0,0,2.0,-10.0,0,-1.0,0.25,1292.0,6708.0,3.0
18948706,6,53_L-NM1_R-WS0,0,2.0,4.0,15.0,10.0,1,0,2.0,5.0,-1,1.0,0.3,4983.0,3017.0,5.0
18948706,7,43_L-EM1_R-ES0,0,2.0,2.0,15.0,10.0,1,0,0.0,5.0,-1,-1.0,0.35,4650.0,3350.0,5.0
18948706,8,50_L-NM0_R-WS1,1,2.0,4.0,15.0,10.0,0,1,2.0,5.0,1,-1.0,0.4,6302.0,1698.0,5.0
18948706,9,44_L-ES0_R-EM1,1,2.0,2.0,10.0,15.0,0,1,0.0,-5.0,1,1.0,0.45,5442.0,2558.0,5.0
18948706,10,57_L-WL1_R-NM0,0,4.0,2.0,20.0,15.0,1,0,-2.0,5.0,-1,1.0,0.5,4653.0,3347.0,5.0
18948706,11,45_L-ES1_R-EM0,0,2.0,2.0,10.0,15.0,1,0,0.0,-5.0,-1,-1.0,0.55,5284.0,2716.0,5.0
18948706,12,01_L-EL0_R-EM0,0,2.0,2.0,20.0,15.0,0,0,0.0,5.0,0,-1.0,0.6,4975.0,3025.0,1.0
18948706,13,37_L-EL1_R-EM0,0,2.0,2.0,20.0,15.0,1,0,0.0,5.0,-1,-1.0,0.65,5466.0,2534.0,5.0
18948706,14,59_L-WM0_R-NM1,1,4.0,2.0,15.0,15.0,0,1,-2.0,0.0,1,-1.0,0.7,5015.0,2985.0,5.0
18948706,15,14_L-WS1_R-NM0,0,4.0,2.0,10.0,15.0,1,0,-2.0,-5.0,-1,1.0,0.75,5717.0,2283.0,5.0
18948706,16,02_L-EL0_R-ES0,0,2.0,2.0,20.0,10.0,0,0,0.0,10.0,0,-1.0,0.8,2066.0,5934.0,2.0
18948706,17,11_L-ES1_R-EL0,0,2.0,2.0,10.0,20.0,1,0,0.0,-10.0,-1,-1.0,0.85,5400.0,2600.0,5.0
18948706,18,27_L-WL0_R-NS0,1,4.0,2.0,20.0,10.0,0,0,-2.0,10.0,0,-1.0,0.9,5005.0,2995.0,4.0
18948706,19,29_L-WL1_R-NS0,0,4.0,2.0,20.0,10.0,1,0,-2.0,10.0,-1,1.0,0.95,4734.0,3266.0,5.0
19112489,1,33_L-WS0_R-NL1,1,4.0,2.0,10.0,20.0,0,1,-2.0,-10.0,1,0.0,0.05,4882.0,3118.0,3.0
19112489,2,45_L-ES1_R-EM0,1,2.0,2.0,10.0,15.0,1,0,0.0,-5.0,-1,1.0,0.1,2595.0,5405.0,3.0
19112489,3,01_L-EL0_R-EM0,1,2.0,2.0,20.0,15.0,0,0,0.0,5.0,0,1.0,0.15,2168.0,5832.0,3.0
19112489,4,62_L-WM1_R-NM0,1,4.0,2.0,15.0,15.0,1,0,-2.0,0.0,-1,1.0,0.2,2804.0,5196.0,3.0
19112489,5,54_L-NS0_R-WM1,0,2.0,4.0,10.0,15.0,0,1,2.0,-5.0,1,1.0,0.25,3852.0,4148.0,3.0
19112489,6,55_L-NS1_R-WM0,1,2.0,4.0,10.0,15.0,1,0,2.0,-5.0,-1,-1.0,0.3,2773.0,5227.0,3.0
19112489,7,02_L-EL0_R-ES0,1,2.0,2.0,20.0,10.0,0,0,0.0,10.0,0,1.0,0.35,3325.0,4675.0,3.0
19112489,8,58_L-WM0_R-NL1,0,4.0,2.0,15.0,20.0,0,1,-2.0,-5.0,1,1.0,0.4,5501.0,2499.0,3.0
19112489,9,52_L-NM1_R-WM0,1,2.0,4.0,15.0,15.0,1,0,2.0,0.0,-1,-1.0,0.45,5395.0,2605.0,3.0
19112489,10,53_L-NM1_R-WS0,1,2.0,4.0,15.0,10.0,1,0,2.0,5.0,-1,1.0,0.5,4769.0,3231.0,4.0
19112489,11,18_L-NL1_R-WS0,1,2.0,4.0,20.0,10.0,1,0,2.0,10.0,-1,1.0,0.55,4631.0,3369.0,4.0
19112489,12,08_L-ES0_R-EL0,1,2.0,2.0,10.0,20.0,0,0,0.0,-10.0,0,1.0,0.6,510.0,7490.0,3.0
19112489,13,11_L-ES1_R-EL0,1,2.0,2.0,10.0,20.0,1,0,0.0,-10.0,-1,1.0,0.65,4514.0,3486.0,3.0
19112489,14,43_L-EM1_R-ES0,1,2.0,2.0,15.0,10.0,1,0,0.0,5.0,-1,1.0,0.7,5351.0,2649.0,3.0
19112489,15,57_L-WL1_R-NM0,1,4.0,2.0,20.0,15.0,1,0,-2.0,5.0,-1,1.0,0.75,4254.0,3746.0,3.0
19112489,16,22_L-NS0_R-WL1,0,2.0,4.0,10.0,20.0,0,1,2.0,-10.0,1,1.0,0.8,4646.0,3354.0,3.0
19112489,17,17_L-NL0_R-WS1,0,2.0,4.0,20.0,10.0,0,1,2.0,10.0,1,-1.0,0.85,3137.0,4863.0,3.0
19112489,18,46_L-NL0_R-WM1,0,2.0,4.0,20.0,15.0,0,1,2.0,5.0,1,-1.0,0.9,5984.0,2016.0,3.0
19112489,19,37_L-EL1_R-EM0,1,2.0,2.0,20.0,15.0,1,0,0.0,5.0,-1,-1.0,0.95,5261.0,2739.0,3.0
19112489,20,03_L-EL0_R-ES1,0,2.0,2.0,20.0,10.0,0,1,0.0,10.0,1,1.0,1.0,5912.0,2088.0,3.0
19415372,1,34_L-WS0_R-NM0,0,4.0,2.0,10.0,15.0,0,0,-2.0,-5.0,0,0.0,0.05,2750.0,5250.0,2.0
19415372,2,01_L-EL0_R-EM0,1,2.0,2.0,20.0,15.0,0,0,0.0,5.0,0,-1.0,0.1,2740.0,5260.0,2.0
19415372,3,18_L-NL1_R-WS0,0,2.0,4.0,20.0,10.0,1,0,2.0,10.0,-1,1.0,0.15,2551.0,5449.0,3.0
19415372,4,27_L-WL0_R-NS0,0,4.0,2.0,20.0,10.0,0,0,-2.0,10.0,0,-1.0,0.2,1043.0,6957.0,2.0
19415372,5,31_L-WM0_R-NS0,0,4.0,2.0,15.0,10.0,0,0,-2.0,5.0,0,-1.0,0.25,1764.0,6236.0,2.0
19415372,6,25_L-WM0_R-NM0,0,4.0,2.0,15.0,15.0,0,0,-2.0,0.0,0,-1.0,0.3,71.0,7929.0,2.0
19415372,7,20_L-NM0_R-WS0,1,2.0,4.0,15.0,10.0,0,0,2.0,5.0,0,-1.0,0.35,2173.0,5827.0,2.0
19415372,8,15_L-NL0_R-WM0,1,2.0,4.0,20.0,15.0,0,0,2.0,5.0,0,1.0,0.4,1651.0,6349.0,2.0
19415372,9,55_L-NS1_R-WM0,0,2.0,4.0,10.0,15.0,1,0,2.0,-5.0,-1,1.0,0.45,2971.0,5029.0,4.0
19415372,10,40_L-EM0_R-ES1,1,2.0,2.0,15.0,10.0,0,1,0.0,5.0,1,-1.0,0.5,4318.0,3682.0,4.0
19415372,11,06_L-EM0_R-EM0,0,2.0,2.0,15.0,15.0,0,0,0.0,0.0,0,1.0,0.55,961.0,7039.0,2.0
19415372,12,30_L-WM0_R-NL0,0,4.0,2.0,15.0,20.0,0,0,-2.0,-5.0,0,-1.0,0.6,4472.0,3528.0,2.0
19415372,13,17_L-NL0_R-WS1,1,2.0,4.0,20.0,10.0,0,1,2.0,10.0,1,-1.0,0.65,5714.0,2286.0,4.0
19415372,14,48_L-NM0_R-WL1,1,2.0,4.0,15.0,20.0,0,1,2.0,-5.0,1,1.0,0.7,2793.0,5207.0,4.0
19415372,15,26_L-WL0_R-NM0,0,4.0,2.0,20.0,15.0,0,0,-2.0,5.0,0,1.0,0.75,5118.0,2882.0,2.0
19415372,16,42_L-EM1_R-EM0,0,2.0,2.0,15.0,15.0,1,0,0.0,0.0,-1,-1.0,0.8,4447.0,3553.0,4.0
19415372,17,49_L-NM0_R-WM1,1,2.0,4.0,15.0,15.0,0,1,2.0,0.0,1,-1.0,0.85,3199.0,4801.0,4.0
19415372,18,59_L-WM0_R-NM1,1,4.0,2.0,15.0,15.0,0,1,-2.0,0.0,1,1.0,0.9,3330.0,4670.0,3.0
19415372,19,53_L-NM1_R-WS0,0,2.0,4.0,15.0,10.0,1,0,2.0,5.0,-1,1.0,0.95,4065.0,3935.0,3.0
19415372,20,03_L-EL0_R-ES1,1,2.0,2.0,20.0,10.0,0,1,0.0,10.0,1,-1.0,1.0,3843.0,4157.0,4.0
1952440,1,56_L-WL0_R-NM1,0,4.0,2.0,20.0,15.0,0,1,-2.0,5.0,1,0.0,0.05,4631.0,3369.0,3.0
1952440,2,28_L-WL0_R-NS1,0,4.0,2.0,20.0,10.0,0,1,-2.0,10.0,1,-1.0,0.1,2951.0,5049.0,4.0
1952440,3,43_L-EM1_R-ES0,0,2.0,2.0,15.0,10.0,1,0,0.0,5.0,-1,-1.0,0.15,5631.0,2369.0,4.0
1952440,4,54_L-NS0_R-WM1,1,2.0,4.0,10.0,15.0,0,1,2.0,-5.0,1,-1.0,0.2,4930.0,3070.0,4.0
1952440,5,53_L-NM1_R-WS0,1,2.0,4.0,15.0,10.0,1,0,2.0,5.0,-1,1.0,0.25,5732.0,2268.0,3.0
1952440,6,13_L-WS0_R-NM1,0,4.0,2.0,10.0,15.0,0,1,-2.0,-5.0,1,1.0,0.3,5481.0,2519.0,4.0
1952440,8,20_L-NM0_R-WS0,1,2.0,4.0,15.0,10.0,0,0,2.0,5.0,0,-1.0,0.4,5430.0,2570.0,4.0
1952440,9,46_L-NL0_R-WM1,1,2.0,4.0,20.0,15.0,0,1,2.0,5.0,1,1.0,0.45,5431.0,2569.0,4.0
1952440,10,02_L-EL0_R-ES0,0,2.0,2.0,20.0,10.0,0,0,0.0,10.0,0,1.0,0.5,4158.0,3842.0,2.0
1952440,11,15_L-NL0_R-WM0,1,2.0,4.0,20.0,15.0,0,0,2.0,5.0,0,-1.0,0.55,4997.0,3003.0,4.0
1952440,12,29_L-WL1_R-NS0,0,4.0,2.0,20.0,10.0,1,0,-2.0,10.0,-1,1.0,0.6,5579.0,2421.0,4.0
1952440,13,47_L-NL1_R-WM0,1,2.0,4.0,20.0,15.0,1,0,2.0,5.0,-1,-1.0,0.65,4521.0,3479.0,2.0
1952440,14,38_L-EM0_R-EL1,1,2.0,2.0,15.0,20.0,0,1,0.0,-5.0,1,1.0,0.7,3161.0,4839.0,3.0
1952440,15,55_L-NS1_R-WM0,1,2.0,4.0,10.0,15.0,1,0,2.0,-5.0,-1,1.0,0.75,5071.0,2929.0,3.0
1952440,16,07_L-EM0_R-ES0,0,2.0,2.0,15.0,10.0,0,0,0.0,5.0,0,1.0,0.8,4097.0,3903.0,2.0
1952440,17,06_L-EM0_R-EM0,0,2.0,2.0,15.0,15.0,0,0,0.0,0.0,0,-1.0,0.85,5350.0,2650.0,2.0
1952440,18,36_L-EL0_R-EM1,1,2.0,2.0,20.0,15.0,0,1,0.0,5.0,1,-1.0,0.9,5236.0,2764.0,4.0
1952440,19,08_L-ES0_R-EL0,0,2.0,2.0,10.0,20.0,0,0,0.0,-10.0,0,1.0,0.95,5101.0,2899.0,3.0
1952440,20,21_L-NS0_R-WL0,1,2.0,4.0,10.0,20.0,0,0,2.0,-10.0,0,-1.0,1.0,5817.0,2183.0,4.0
19886308,1,06_L-EM0_R-EM0,1,2.0,2.0,15.0,15.0,0,0,0.0,0.0,0,0.0,0.05,5400.0,2600.0,3.0
19886308,2,25_L-WM0_R-NM0,0,4.0,2.0,15.0,15.0,0,0,-2.0,0.0,0,1.0,0.1,4080.0,3920.0,4.0
19886308,3,59_L-WM0_R-NM1,1,4.0,2.0,15.0,15.0,0,1,-2.0,0.0,1,-1.0,0.15,4437.0,3563.0,4.0
19886308,4,08_L-ES0_R-EL0,0,2.0,2.0,10.0,20.0,0,0,0.0,-10.0,0,1.0,0.2,3788.0,4212.0,3.0
19886308,5,50_L-NM0_R-WS1,1,2.0,4.0,15.0,10.0,0,1,2.0,5.0,1,-1.0,0.25,5446.0,2554.0,5.0
19886308,6,12_L-NM0_R-WM0,1,2.0,4.0,15.0,15.0,0,0,2.0,0.0,0,1.0,0.3,5530.0,2470.0,4.0
19886308,7,31_L-WM0_R-NS0,0,4.0,2.0,15.0,10.0,0,0,-2.0,5.0,0,1.0,0.35,3527.0,4473.0,4.0
19886308,8,37_L-EL1_R-EM0,0,2.0,2.0,20.0,15.0,1,0,0.0,5.0,-1,-1.0,0.4,4045.0,3955.0,4.0
19886308,9,34_L-WS0_R-NM0,0,4.0,2.0,10.0,15.0,0,0,-2.0,-5.0,0,-1.0,0.45,5489.0,2511.0,4.0
19886308,10,52_L-NM1_R-WM0,1,2.0,4.0,15.0,15.0,1,0,2.0,0.0,-1,-1.0,0.5,5625.0,2375.0,3.0
19886308,11,27_L-WL0_R-NS0,1,4.0,2.0,20.0,10.0,0,0,-2.0,10.0,0,1.0,0.55,2984.0,5016.0,2.0
19886308,12,62_L-WM1_R-NM0,0,4.0,2.0,15.0,15.0,1,0,-2.0,0.0,-1,1.0,0.6,5552.0,2448.0,4.0
19886308,13,55_L-NS1_R-WM0,0,2.0,4.0,10.0,15.0,1,0,2.0,-5.0,-1,-1.0,0.65,2295.0,5705.0,2.0
19886308,14,01_L-EL0_R-EM0,1,2.0,2.0,20.0,15.0,0,0,0.0,5.0,0,-1.0,0.7,4325.0,3675.0,4.0
19886308,15,21_L-NS0_R-WL0,1,2.0,4.0,10.0,20.0,0,0,2.0,-10.0,0,1.0,0.75,5025.0,2975.0,3.0
19886308,16,57_L-WL1_R-NM0,0,4.0,2.0,20.0,15.0,1,0,-2.0,5.0,-1,1.0,0.8,5984.0,2016.0,5.0
19886308,17,18_L-NL1_R-WS0,1,2.0,4.0,20.0,10.0,1,0,2.0,10.0,-1,-1.0,0.85,4186.0,3814.0,2.0
19886308,18,40_L-EM0_R-ES1,1,2.0,2.0,15.0,10.0,0,1,0.0,5.0,1,1.0,0.9,4853.0,3147.0,4.0
19886308,19,47_L-NL1_R-WM0,0,2.0,4.0,20.0,15.0,1,0,2.0,5.0,-1,1.0,0.95,4701.0,3299.0,2.0
19886308,20,49_L-NM0_R-WM1,1,2.0,4.0,15.0,15.0,0,1,2.0,0.0,1,-1.0,1.0,5115.0,2885.0,5.0
2004234,1,63_L-WM1_R-NS0,0,4.0,2.0,15.0,10.0,1,0,-2.0,5.0,-1,0.0,0.05,4356.0,3644.0,3.0
2004234,2,04_L-EL1_R-ES0,0,2.0,2.0,20.0,10.0,1,0,0.0,10.0,-1,-1.0,0.1,3044.0,4956.0,3.0
2004234,3,47_L-NL1_R-WM0,0,2.0,4.0,20.0,15.0,1,0,2.0,5.0,-1,-1.0,0.15,3890.0,4110.0,3.0
2004234,4,06_L-EM0_R-EM0,1,2.0,2.0,15.0,15.0,0,0,0.0,0.0,0,-1.0,0.2,4670.0,3330.0,3.0
2004234,5,08_L-ES0_R-EL0,0,2.0,2.0,10.0,20.0,0,0,0.0,-10.0,0,1.0,0.25,4729.0,3271.0,3.0
2004234,6,38_L-EM0_R-EL1,1,2.0,2.0,15.0,20.0,0,1,0.0,-5.0,1,-1.0,0.3,4537.0,3463.0,3.0
2004234,7,46_L-NL0_R-WM1,1,2.0,4.0,20.0,15.0,0,1,2.0,5.0,1,1.0,0.35,5094.0,2906.0,3.0
2004234,8,61_L-WM1_R-NL0,0,4.0,2.0,15.0,20.0,1,0,-2.0,-5.0,-1,1.0,0.4,4348.0,3652.0,3.0
2004234,9,16_L-NL0_R-WS0,1,2.0,4.0,20.0,10.0,0,0,2.0,10.0,0,-1.0,0.45,4956.0,3044.0,3.0
2004234,10,53_L-NM1_R-WS0,0,2.0,4.0,15.0,10.0,1,0,2.0,5.0,-1,1.0,0.5,2521.0,5479.0,3.0
2004234,11,25_L-WM0_R-NM0,1,4.0,2.0,15.0,15.0,0,0,-2.0,0.0,0,-1.0,0.55,3807.0,4193.0,3.0
2004234,12,50_L-NM0_R-WS1,1,2.0,4.0,15.0,10.0,0,1,2.0,5.0,1,1.0,0.6,4924.0,3076.0,4.0
2004234,13,49_L-NM0_R-WM1,1,2.0,4.0,15.0,15.0,0,1,2.0,0.0,1,1.0,0.65,5104.0,2896.0,4.0
2004234,14,03_L-EL0_R-ES1,1,2.0,2.0,20.0,10.0,0,1,0.0,10.0,1,1.0,0.7,5293.0,2707.0,4.0
2004234,15,01_L-EL0_R-EM0,1,2.0,2.0,20.0,15.0,0,0,0.0,5.0,0,1.0,0.75,3803.0,4197.0,3.0
2004234,16,52_L-NM1_R-WM0,0,2.0,4.0,15.0,15.0,1,0,2.0,0.0,-1,1.0,0.8,3898.0,4102.0,4.0
2004234,17,11_L-ES1_R-EL0,0,2.0,2.0,10.0,20.0,1,0,0.0,-10.0,-1,-1.0,0.85,5008.0,2992.0,4.0
2004234,18,35_L-WS1_R-NL0,0,4.0,2.0,10.0,20.0,1,0,-2.0,-10.0,-1,-1.0,0.9,4636.0,3364.0,4.0
2004234,19,20_L-NM0_R-WS0,1,2.0,4.0,15.0,10.0,0,0,2.0,5.0,0,-1.0,0.95,5179.0,2821.0,3.0
2004234,20,05_L-EM0_R-EL0,0,2.0,2.0,15.0,20.0,0,0,0.0,-5.0,0,1.0,1.0,4604.0,3396.0,3.0
20098770,1,19_L-NM0_R-WL0,1,2.0,4.0,15.0,20.0,0,0,2.0,-5.0,0,0.0,0.05,4874.0,3126.0,3.0
20098770,2,03_L-EL0_R-ES1,1,2.0,2.0,20.0,10.0,0,1,0.0,10.0,1,1.0,0.1,5275.0,2725.0,4.0
20098770,3,20_L-NM0_R-WS0,1,2.0,4.0,15.0,10.0,0,0,2.0,5.0,0,1.0,0.15,4006.0,3994.0,3.0
20098770,4,50_L-NM0_R-WS1,1,2.0,4.0,15.0,10.0,0,1,2.0,5.0,1,1.0,0.2,5479.0,2521.0,4.0
20098770,5,22_L-NS0_R-WL1,1,2.0,4.0,10.0,20.0,0,1,2.0,-10.0,1,1.0,0.25,4875.0,3125.0,4.0
20098770,6,10_L-ES0_R-EM0,0,2.0,2.0,10.0,15.0,0,0,0.0,-5.0,0,1.0,0.3,5581.0,2419.0,3.0
20098770,7,53_L-NM1_R-WS0,0,2.0,4.0,15.0,10.0,1,0,2.0,5.0,-1,-1.0,0.35,2320.0,5680.0,3.0
20098770,8,31_L-WM0_R-NS0,0,4.0,2.0,15.0,10.0,0,0,-2.0,5.0,0,-1.0,0.4,5648.0,2352.0,4.0
20098770,9,47_L-NL1_R-WM0,1,2.0,4.0,20.0,15.0,1,0,2.0,5.0,-1,-1.0,0.45,4205.0,3795.0,3.0
20098770,10,21_L-NS0_R-WL0,0,2.0,4.0,10.0,20.0,0,0,2.0,-10.0,0,1.0,0.5,5330.0,2670.0,2.0
20098770,11,08_L-ES0_R-EL0,0,2.0,2.0,10.0,20.0,0,0,0.0,-10.0,0,-1.0,0.55,5946.0,2054.0,3.0
20098770,12,23_L-NS0_R-WM0,1,2.0,4.0,10.0,15.0,0,0,2.0,-5.0,0,-1.0,0.6,5232.0,2768.0,3.0
20098770,13,16_L-NL0_R-WS0,1,2.0,4.0,20.0,10.0,0,0,2.0,10.0,0,1.0,0.65,5638.0,2362.0,4.0
20098770,14,25_L-WM0_R-NM0,0,4.0,2.0,15.0,15.0,0,0,-2.0,0.0,0,1.0,0.7,4408.0,3592.0,4.0
20098770,15,24_L-NS1_R-WL0,0,2.0,4.0,10.0,20.0,1,0,2.0,-10.0,-1,-1.0,0.75,5910.0,2090.0,4.0
20098770,16,36_L-EL0_R-EM1,1,2.0,2.0,20.0,15.0,0,1,0.0,5.0,1,-1.0,0.8,5065.0,2935.0,4.0
20098770,17,56_L-WL0_R-NM1,1,4.0,2.0,20.0,15.0,0,1,-2.0,5.0,1,1.0,0.85,4973.0,3027.0,4.0
20098770,18,14_L-WS1_R-NM0,0,4.0,2.0,10.0,15.0,1,0,-2.0,-5.0,-1,1.0,0.9,5786.0,2214.0,5.0
20098770,19,33_L-WS0_R-NL1,0,4.0,2.0,10.0,20.0,0,1,-2.0,-10.0,1,-1.0,0.95,5813.0,2187.0,3.0
20098770,20,35_L-WS1_R-NL0,0,4.0,2.0,10.0,20.0,1,0,-2.0,-10.0,-1,-1.0,1.0,5583.0,2417.0,5.0
20452318,1,30_L-WM0_R-NL0,1,4.0,2.0,15.0,20.0,0,0,-2.0,-5.0,0,0.0,0.05,5975.0,2025.0,5.0
20452318,2,04_L-EL1_R-ES0,1,2.0,2.0,20.0,10.0,1,0,0.0,10.0,-1,1.0,0.1,5850.0,2150.0,5.0
20452318,3,12_L-NM0_R-WM0,1,2.0,4.0,15.0,15.0,0,0,2.0,0.0,0,1.0,0.15,6507.0,1493.0,5.0
20452318,4,26_L-WL0_R-NM0,1,4.0,2.0,20.0,15.0,0,0,-2.0,5.0,0,1.0,0.2,6177.0,1823.0,5.0
20452318,5,31_L-WM0_R-NS0,1,4.0,2.0,15.0,10.0,0,0,-2.0,5.0,0,1.0,0.25,6521.0,1479.0,5.0
20452318,6,62_L-WM1_R-NM0,1,4.0,2.0,15.0,15.0,1,0,-2.0,0.0,-1,1.0,0.3,6583.0,1417.0,5.0
20452318,7,45_L-ES1_R-EM0,1,2.0,2.0,10.0,15.0,1,0,0.0,-5.0,-1,1.0,0.35,5057.0,2943.0,5.0
20452318,8,08_L-ES0_R-EL0,1,2.0,2.0,10.0,20.0,0,0,0.0,-10.0,0,1.0,0.4,6121.0,1879.0,5.0
20452318,9,51_L-NM1_R-WL0,1,2.0,4.0,15.0,20.0,1,0,2.0,-5.0,-1,1.0,0.45,6551.0,1449.0,5.0
20452318,10,32_L-WS0_R-NL0,1,4.0,2.0,10.0,20.0,0,0,-2.0,-10.0,0,1.0,0.5,6547.0,1453.0,5.0
20452318,11,42_L-EM1_R-EM0,1,2.0,2.0,15.0,15.0,1,0,0.0,0.0,-1,1.0,0.55,6367.0,1633.0,5.0
20452318,12,61_L-WM1_R-NL0,1,4.0,2.0,15.0,20.0,1,0,-2.0,-5.0,-1,1.0,0.6,6400.0,1600.0,5.0
20452318,13,23_L-NS0_R-WM0,1,2.0,4.0,10.0,15.0,0,0,2.0,-5.0,0,1.0,0.65,6463.0,1537.0,5.0
20452318,14,47_L-NL1_R-WM0,1,2.0,4.0,20.0,15.0,1,0,2.0,5.0,-1,1.0,0.7,6341.0,1659.0,5.0
20452318,15,11_L-ES1_R-EL0,1,2.0,2.0,10.0,20.0,1,0,0.0,-10.0,-1,1.0,0.75,4900.0,3100.0,5.0
20452318,16,40_L-EM0_R-ES1,0,2.0,2.0,15.0,10.0,0,1,0.0,5.0,1,1.0,0.8,5504.0,2496.0,5.0
20452318,17,60_L-WM0_R-NS1,0,4.0,2.0,15.0,10.0,0,1,-2.0,5.0,1,-1.0,0.85,5500.0,2500.0,5.0
20452318,18,09_L-ES0_R-EL1,0,2.0,2.0,10.0,20.0,0,1,0.0,-10.0,1,-1.0,0.9,5670.0,2330.0,5.0
20452318,19,24_L-NS1_R-WL0,1,2.0,4.0,10.0,20.0,1,0,2.0,-10.0,-1,-1.0,0.95,6559.0,1441.0,5.0
20452318,20,44_L-ES0_R-EM1,0,2.0,2.0,10.0,15.0,0,1,0.0,-5.0,1,1.0,1.0,6583.0,1417.0,5.0
20906686,1,57_L-WL1_R-NM0,0,4.0,2.0,20.0,15.0,1,0,-2.0,5.0,-1,0.0,0.05,4482.0,3518.0,4.0
20906686,2,02_L-EL0_R-ES0,1,2.0,2.0,20.0,10.0,0,0,0.0,10.0,0,-1.0,0.1,4586.0,3414.0,4.0
20906686,3,10_L-ES0_R-EM0,0,2.0,2.0,10.0,15.0,0,0,0.0,-5.0,0,1.0,0.15,5202.0,2798.0,4.0
20906686,4,58_L-WM0_R-NL1,1,4.0,2.0,15.0,20.0,0,1,-2.0,-5.0,1,-1.0,0.2,5296.0,2704.0,4.0
20906686,5,30_L-WM0_R-NL0,0,4.0,2.0,15.0,20.0,0,0,-2.0,-5.0,0,1.0,0.25,4590.0,3410.0,4.0
20906686,6,21_L-NS0_R-WL0,1,2.0,4.0,10.0,20.0,0,0,2.0,-10.0,0,-1.0,0.3,4361.0,3639.0,4.0
20906686,7,26_L-WL0_R-NM0,0,4.0,2.0,20.0,15.0,0,0,-2.0,5.0,0,1.0,0.35,4976.0,3024.0,4.0
20906686,8,48_L-NM0_R-WL1,1,2.0,4.0,15.0,20.0,0,1,2.0,-5.0,1,-1.0,0.4,6179.0,1821.0,4.0
20906686,9,50_L-NM0_R-WS1,1,2.0,4.0,15.0,10.0,0,1,2.0,5.0,1,1.0,0.45,5452.0,2548.0,4.0
20906686,10,41_L-EM1_R-EL0,0,2.0,2.0,15.0,20.0,1,0,0.0,-5.0,-1,1.0,0.5,5227.0,2773.0,4.0
20906686,11,29_L-WL1_R-NS0,0,4.0,2.0,20.0,10.0,1,0,-2.0,10.0,-1,-1.0,0.55,5493.0,2507.0,4.0
20906686,12,06_L-EM0_R-EM0,0,2.0,2.0,15.0,15.0,0,0,0.0,0.0,0,-1.0,0.6,5483.0,2517.0,4.0
20906686,13,38_L-EM0_R-EL1,1,2.0,2.0,15.0,20.0,0,1,0.0,-5.0,1,-1.0,0.65,5630.0,2370.0,4.0
20906686,14,19_L-NM0_R-WL0,1,2.0,4.0,15.0,20.0,0,0,2.0,-5.0,0,1.0,0.7,4748.0,3252.0,4.0
20906686,15,55_L-NS1_R-WM0,0,2.0,4.0,10.0,15.0,1,0,2.0,-5.0,-1,1.0,0.75,5325.0,2675.0,4.0
20906686,16,28_L-WL0_R-NS1,1,4.0,2.0,20.0,10.0,0,1,-2.0,10.0,1,-1.0,0.8,6249.0,1751.0,4.0
20906686,17,54_L-NS0_R-WM1,1,2.0,4.0,10.0,15.0,0,1,2.0,-5.0,1,1.0,0.85,4661.0,3339.0,4.0
20906686,18,34_L-WS0_R-NM0,0,4.0,2.0,10.0,15.0,0,0,-2.0,-5.0,0,1.0,0.9,5499.0,2501.0,4.0
20906686,19,52_L-NM1_R-WM0,1,2.0,4.0,15.0,15.0,1,0,2.0,0.0,-1,-1.0,0.95,6170.0,1830.0,4.0
21023650,1,63_L-WM1_R-NS0,0,4.0,2.0,15.0,10.0,1,0,-2.0,5.0,-1,0.0,0.05,5203.0,2797.0,4.0
21023650,2,21_L-NS0_R-WL0,1,2.0,4.0,10.0,20.0,0,0,2.0,-10.0,0,-1.0,0.1,5683.0,2317.0,4.0
21023650,3,53_L-NM1_R-WS0,0,2.0,4.0,15.0,10.0,1,0,2.0,5.0,-1,1.0,0.15,5402.0,2598.0,4.0
21023650,4,42_L-EM1_R-EM0,0,2.0,2.0,15.0,15.0,1,0,0.0,0.0,-1,-1.0,0.2,5567.0,2433.0,4.0
21023650,5,09_L-ES0_R-EL1,1,2.0,2.0,10.0,20.0,0,1,0.0,-10.0,1,-1.0,0.25,5867.0,2133.0,4.0
21023650,6,62_L-WM1_R-NM0,0,4.0,2.0,15.0,15.0,1,0,-2.0,0.0,-1,1.0,0.3,5733.0,2267.0,5.0
21023650,8,56_L-WL0_R-NM1,1,4.0,2.0,20.0,15.0,0,1,-2.0,5.0,1,-1.0,0.4,5641.0,2359.0,4.0
21023650,9,40_L-EM0_R-ES1,1,2.0,2.0,15.0,10.0,0,1,0.0,5.0,1,1.0,0.45,5915.0,2085.0,4.0
21023650,10,49_L-NM0_R-WM1,1,2.0,4.0,15.0,15.0,0,1,2.0,0.0,1,1.0,0.5,5917.0,2083.0,4.0
21023650,11,52_L-NM1_R-WM0,0,2.0,4.0,15.0,15.0,1,0,2.0,0.0,-1,1.0,0.55,5401.0,2599.0,4.0
21023650,12,36_L-EL0_R-EM1,1,2.0,2.0,20.0,15.0,0,1,0.0,5.0,1,-1.0,0.6,5463.0,2537.0,4.0
21023650,13,45_L-ES1_R-EM0,0,2.0,2.0,10.0,15.0,1,0,0.0,-5.0,-1,1.0,0.65,5300.0,2700.0,4.0
21023650,14,06_L-EM0_R-EM0,0,2.0,2.0,15.0,15.0,0,0,0.0,0.0,0,-1.0,0.7,3413.0,4587.0,2.0
21023650,15,23_L-NS0_R-WM0,1,2.0,4.0,10.0,15.0,0,0,2.0,-5.0,0,-1.0,0.75,6050.0,1950.0,3.0
21023650,16,26_L-WL0_R-NM0,0,4.0,2.0,20.0,15.0,0,0,-2.0,5.0,0,1.0,0.8,5368.0,2632.0,3.0
21023650,17,43_L-EM1_R-ES0,0,2.0,2.0,15.0,10.0,1,0,0.0,5.0,-1,-1.0,0.85,5140.0,2860.0,4.0
21023650,18,05_L-EM0_R-EL0,0,2.0,2.0,15.0,20.0,0,0,0.0,-5.0,0,-1.0,0.9,4183.0,3817.0,3.0
21023650,19,02_L-EL0_R-ES0,1,2.0,2.0,20.0,10.0,0,0,0.0,10.0,0,-1.0,0.95,5459.0,2541.0,3.0
21023650,20,11_L-ES1_R-EL0,0,2.0,2.0,10.0,20.0,1,0,0.0,-10.0,-1,1.0,1.0,5333.0,2667.0,4.0
21052864,1,35_L-WS1_R-NL0,0,4.0,2.0,10.0,20.0,1,0,-2.0,-10.0,-1,0.0,0.05,5079.0,2921.0,5.0
21052864,2,61_L-WM1_R-NL0,0,4.0,2.0,15.0,20.0,1,0,-2.0,-5.0,-1,-1.0,0.1,6007.0,1993.0,5.0
21052864,3,28_L-WL0_R-NS1,1,4.0,2.0,20.0,10.0,0,1,-2.0,10.0,1,-1.0,0.15,4967.0,3033.0,5.0
21052864,4,55_L-NS1_R-WM0,0,2.0,4.0,10.0,15.0,1,0,2.0,-5.0,-1,1.0,0.2,5201.0,2799.0,5.0
21052864,5,58_L-WM0_R-NL1,1,4.0,2.0,15.0,20.0,0,1,-2.0,-5.0,1,-1.0,0.25,4891.0,3109.0,5.0
21052864,6,32_L-WS0_R-NL0,0,4.0,2.0,10.0,20.0,0,0,-2.0,-10.0,0,1.0,0.3,4619.0,3381.0,3.0
21052864,7,23_L-NS0_R-WM0,1,2.0,4.0,10.0,15.0,0,0,2.0,-5.0,0,-1.0,0.35,4198.0,3802.0,3.0
21052864,8,22_L-NS0_R-WL1,1,2.0,4.0,10.0,20.0,0,1,2.0,-10.0,1,1.0,0.4,5953.0,2047.0,4.0
21052864,9,54_L-NS0_R-WM1,1,2.0,4.0,10.0,15.0,0,1,2.0,-5.0,1,1.0,0.45,5456.0,2544.0,4.0
21052864,10,15_L-NL0_R-WM0,1,2.0,4.0,20.0,15.0,0,0,2.0,5.0,0,1.0,0.5,6092.0,1908.0,3.0
21052864,11,51_L-NM1_R-WL0,0,2.0,4.0,15.0,20.0,1,0,2.0,-5.0,-1,1.0,0.55,3176.0,4824.0,4.0
21052864,12,50_L-NM0_R-WS1,1,2.0,4.0,15.0,10.0,0,1,2.0,5.0,1,-1.0,0.6,5498.0,2502.0,5.0
21052864,13,18_L-NL1_R-WS0,0,2.0,4.0,20.0,10.0,1,0,2.0,10.0,-1,1.0,0.65,4565.0,3435.0,4.0
21052864,14,37_L-EL1_R-EM0,0,2.0,2.0,20.0,15.0,1,0,0.0,5.0,-1,-1.0,0.7,5461.0,2539.0,4.0
21052864,15,06_L-EM0_R-EM0,1,2.0,2.0,15.0,15.0,0,0,0.0,0.0,0,-1.0,0.75,2565.0,5435.0,2.0
21052864,16,63_L-WM1_R-NS0,0,4.0,2.0,15.0,10.0,1,0,-2.0,5.0,-1,1.0,0.8,5153.0,2847.0,5.0
21052864,17,49_L-NM0_R-WM1,1,2.0,4.0,15.0,15.0,0,1,2.0,0.0,1,-1.0,0.85,5520.0,2480.0,4.0
21052864,18,36_L-EL0_R-EM1,1,2.0,2.0,20.0,15.0,0,1,0.0,5.0,1,1.0,0.9,5653.0,2347.0,4.0
21052864,19,05_L-EM0_R-EL0,0,2.0,2.0,15.0,20.0,0,0,0.0,-5.0,0,1.0,0.95,3003.0,4997.0,2.0
21052864,20,12_L-NM0_R-WM0,1,2.0,4.0,15.0,15.0,0,0,2.0,0.0,0,-1.0,1.0,4495.0,3505.0,3.0
21234995,2,40_L-EM0_R-ES1,1,2.0,2.0,15.0,10.0,0,1,0.0,5.0,1,0.0,0.1,2636.0,5364.0,4.0
21234995,3,05_L-EM0_R-EL0,1,2.0,2.0,15.0,20.0,0,0,0.0,-5.0,0,1.0,0.15,1143.0,6857.0,3.0
21234995,4,36_L-EL0_R-EM1,1,2.0,2.0,20.0,15.0,0,1,0.0,5.0,1,1.0,0.2,4516.0,3484.0,4.0
21234995,5,31_L-WM0_R-NS0,1,4.0,2.0,15.0,10.0,0,0,-2.0,5.0,0,1.0,0.25,933.0,7067.0,4.0
21234995,6,26_L-WL0_R-NM0,0,4.0,2.0,20.0,15.0,0,0,-2.0,5.0,0,1.0,0.3,2315.0,5685.0,4.0
21234995,7,58_L-WM0_R-NL1,1,4.0,2.0,15.0,20.0,0,1,-2.0,-5.0,1,-1.0,0.35,3502.0,4498.0,5.0
21234995,8,35_L-WS1_R-NL0,0,4.0,2.0,10.0,20.0,1,0,-2.0,-10.0,-1,1.0,0.4,4151.0,3849.0,4.0
21234995,9,45_L-ES1_R-EM0,0,2.0,2.0,10.0,15.0,1,0,0.0,-5.0,-1,-1.0,0.45,4077.0,3923.0,4.0
21234995,10,02_L-EL0_R-ES0,1,2.0,2.0,20.0,10.0,0,0,0.0,10.0,0,-1.0,0.5,3344.0,4656.0,4.0
21234995,11,50_L-NM0_R-WS1,1,2.0,4.0,15.0,10.0,0,1,2.0,5.0,1,1.0,0.55,5245.0,2755.0,5.0
21234995,12,07_L-EM0_R-ES0,0,2.0,2.0,15.0,10.0,0,0,0.0,5.0,0,1.0,0.6,3480.0,4520.0,2.0
21234995,13,17_L-NL0_R-WS1,1,2.0,4.0,20.0,10.0,0,1,2.0,10.0,1,-1.0,0.65,6129.0,1871.0,4.0
21234995,14,41_L-EM1_R-EL0,0,2.0,2.0,15.0,20.0,1,0,0.0,-5.0,-1,1.0,0.7,5233.0,2767.0,5.0
21234995,15,57_L-WL1_R-NM0,0,4.0,2.0,20.0,15.0,1,0,-2.0,5.0,-1,-1.0,0.75,5195.0,2805.0,5.0
21234995,16,47_L-NL1_R-WM0,0,2.0,4.0,20.0,15.0,1,0,2.0,5.0,-1,-1.0,0.8,6059.0,1941.0,4.0
21234995,17,49_L-NM0_R-WM1,1,2.0,4.0,15.0,15.0,0,1,2.0,0.0,1,-1.0,0.85,6514.0,1486.0,4.0
21234995,18,56_L-WL0_R-NM1,1,4.0,2.0,20.0,15.0,0,1,-2.0,5.0,1,1.0,0.9,5059.0,2941.0,4.0
21234995,19,59_L-WM0_R-NM1,1,4.0,2.0,15.0,15.0,0,1,-2.0,0.0,1,1.0,0.95,5911.0,2089.0,4.0
21234995,20,10_L-ES0_R-EM0,1,2.0,2.0,10.0,15.0,0,0,0.0,-5.0,0,1.0,1.0,3966.0,4034.0,4.0
21979784,1,34_L-WS0_R-NM0,0,4.0,2.0,10.0,15.0,0,0,-2.0,-5.0,0,0.0,0.05,4796.0,3204.0,4.0
21979784,2,02_L-EL0_R-ES0,1,2.0,2.0,20.0,10.0,0,0,0.0,10.0,0,-1.0,0.1,1554.0,6446.0,3.0
21979784,3,15_L-NL0_R-WM0,1,2.0,4.0,20.0,15.0,0,0,2.0,5.0,0,1.0,0.15,878.0,7122.0,2.0
21979784,4,35_L-WS1_R-NL0,0,4.0,2.0,10.0,20.0,1,0,-2.0,-10.0,-1,1.0,0.2,4353.0,3647.0,4.0
21979784,5,32_L-WS0_R-NL0,0,4.0,2.0,10.0,20.0,0,0,-2.0,-10.0,0,-1.0,0.25,3355.0,4645.0,2.0
21979784,6,21_L-NS0_R-WL0,1,2.0,4.0,10.0,20.0,0,0,2.0,-10.0,0,-1.0,0.3,4932.0,3068.0,3.0
21979784,7,18_L-NL1_R-WS0,0,2.0,4.0,20.0,10.0,1,0,2.0,10.0,-1,1.0,0.35,3000.0,5000.0,4.0
21979784,9,26_L-WL0_R-NM0,0,4.0,2.0,20.0,15.0,0,0,-2.0,5.0,0,-1.0,0.45,4372.0,3628.0,2.0
21979784,10,59_L-WM0_R-NM1,1,4.0,2.0,15.0,15.0,0,1,-2.0,0.0,1,-1.0,0.5,5509.0,2491.0,4.0
21979784,11,27_L-WL0_R-NS0,0,4.0,2.0,20.0,10.0,0,0,-2.0,10.0,0,1.0,0.55,4651.0,3349.0,3.0
21979784,12,62_L-WM1_R-NM0,0,4.0,2.0,15.0,15.0,1,0,-2.0,0.0,-1,-1.0,0.6,4966.0,3034.0,4.0
21979784,13,63_L-WM1_R-NS0,0,4.0,2.0,15.0,10.0,1,0,-2.0,5.0,-1,-1.0,0.65,5614.0,2386.0,4.0
21979784,14,56_L-WL0_R-NM1,1,4.0,2.0,20.0,15.0,0,1,-2.0,5.0,1,-1.0,0.7,5188.0,2812.0,4.0
21979784,15,48_L-NM0_R-WL1,1,2.0,4.0,15.0,20.0,0,1,2.0,-5.0,1,1.0,0.75,5563.0,2437.0,4.0
21979784,16,50_L-NM0_R-WS1,1,2.0,4.0,15.0,10.0,0,1,2.0,5.0,1,1.0,0.8,5743.0,2257.0,5.0
21979784,17,20_L-NM0_R-WS0,1,2.0,4.0,15.0,10.0,0,0,2.0,5.0,0,1.0,0.85,4844.0,3156.0,3.0
21979784,18,37_L-EL1_R-EM0,0,2.0,2.0,20.0,15.0,1,0,0.0,5.0,-1,1.0,0.9,5232.0,2768.0,3.0
21979784,19,11_L-ES1_R-EL0,0,2.0,2.0,10.0,20.0,1,0,0.0,-10.0,-1,-1.0,0.95,4329.0,3671.0,4.0
21979784,20,07_L-EM0_R-ES0,1,2.0,2.0,15.0,10.0,0,0,0.0,5.0,0,-1.0,1.0,1712.0,6288.0,3.0
22385026,1,04_L-EL1_R-ES0,0,2.0,2.0,20.0,10.0,1,0,0.0,10.0,-1,0.0,0.05,5244.0,2756.0,4.0
22385026,2,21_L-NS0_R-WL0,1,2.0,4.0,10.0,20.0,0,0,2.0,-10.0,0,-1.0,0.1,570.0,7430.0,3.0
22385026,3,25_L-WM0_R-NM0,0,4.0,2.0,15.0,15.0,0,0,-2.0,0.0,0,1.0,0.15,3227.0,4773.0,3.0
22385026,4,03_L-EL0_R-ES1,1,2.0,2.0,20.0,10.0,0,1,0.0,10.0,1,-1.0,0.2,4478.0,3522.0,4.0
22385026,5,16_L-NL0_R-WS0,1,2.0,4.0,20.0,10.0,0,0,2.0,10.0,0,1.0,0.25,4467.0,3533.0,3.0
22385026,6,41_L-EM1_R-EL0,0,2.0,2.0,15.0,20.0,1,0,0.0,-5.0,-1,1.0,0.3,3551.0,4449.0,4.0
22385026,7,40_L-EM0_R-ES1,1,2.0,2.0,15.0,10.0,0,1,0.0,5.0,1,-1.0,0.35,965.0,7035.0,4.0
22385026,8,23_L-NS0_R-WM0,1,2.0,4.0,10.0,15.0,0,0,2.0,-5.0,0,1.0,0.4,108.0,7892.0,3.0
22385026,9,14_L-WS1_R-NM0,0,4.0,2.0,10.0,15.0,1,0,-2.0,-5.0,-1,1.0,0.45,3490.0,4510.0,4.0
22385026,11,33_L-WS0_R-NL1,1,4.0,2.0,10.0,20.0,0,1,-2.0,-10.0,1,-1.0,0.55,4412.0,3588.0,4.0
22385026,12,24_L-NS1_R-WL0,0,2.0,4.0,10.0,20.0,1,0,2.0,-10.0,-1,1.0,0.6,4305.0,3695.0,4.0
22385026,13,27_L-WL0_R-NS0,0,4.0,2.0,20.0,10.0,0,0,-2.0,10.0,0,-1.0,0.65,3248.0,4752.0,4.0
22385026,14,17_L-NL0_R-WS1,1,2.0,4.0,20.0,10.0,0,1,2.0,10.0,1,-1.0,0.7,3241.0,4759.0,4.0
22385026,15,59_L-WM0_R-NM1,1,4.0,2.0,15.0,15.0,0,1,-2.0,0.0,1,1.0,0.75,4874.0,3126.0,4.0
22385026,16,44_L-ES0_R-EM1,1,2.0,2.0,10.0,15.0,0,1,0.0,-5.0,1,1.0,0.8,4811.0,3189.0,4.0
22385026,17,50_L-NM0_R-WS1,1,2.0,4.0,15.0,10.0,0,1,2.0,5.0,1,1.0,0.85,3898.0,4102.0,4.0
22385026,18,12_L-NM0_R-WM0,1,2.0,4.0,15.0,15.0,0,0,2.0,0.0,0,1.0,0.9,5075.0,2925.0,4.0
22385026,19,45_L-ES1_R-EM0,0,2.0,2.0,10.0,15.0,1,0,0.0,-5.0,-1,1.0,0.95,4037.0,3963.0,4.0
22385026,20,53_L-NM1_R-WS0,1,2.0,4.0,15.0,10.0,1,0,2.0,5.0,-1,-1.0,1.0,2489.0,5511.0,3.0
22780971,1,15_L-NL0_R-WM0,1,2.0,4.0,20.0,15.0,0,0,2.0,5.0,0,0.0,0.05,3729.0,4271.0,3.0
22780971,2,40_L-EM0_R-ES1,1,2.0,2.0,15.0,10.0,0,1,0.0,5.0,1,1.0,0.1,3982.0,4018.0,4.0
22780971,3,32_L-WS0_R-NL0,0,4.0,2.0,10.0,20.0,0,0,-2.0,-10.0,0,1.0,0.15,5273.0,2727.0,3.0
22780971,4,53_L-NM1_R-WS0,0,2.0,4.0,15.0,10.0,1,0,2.0,5.0,-1,-1.0,0.2,4610.0,3390.0,4.0
22780971,5,46_L-NL0_R-WM1,1,2.0,4.0,20.0,15.0,0,1,2.0,5.0,1,-1.0,0.25,4283.0,3717.0,4.0
22780971,6,45_L-ES1_R-EM0,0,2.0,2.0,10.0,15.0,1,0,0.0,-5.0,-1,1.0,0.3,5247.0,2753.0,4.0
22780971,7,19_L-NM0_R-WL0,1,2.0,4.0,15.0,20.0,0,0,2.0,-5.0,0,-1.0,0.35,4025.0,3975.0,3.0
22780971,8,60_L-WM0_R-NS1,1,4.0,2.0,15.0,10.0,0,1,-2.0,5.0,1,1.0,0.4,5407.0,2593.0,4.0
22780971,9,61_L-WM1_R-NL0,0,4.0,2.0,15.0,20.0,1,0,-2.0,-5.0,-1,1.0,0.45,5024.0,2976.0,4.0
22780971,10,27_L-WL0_R-NS0,0,4.0,2.0,20.0,10.0,0,0,-2.0,10.0,0,-1.0,0.5,5241.0,2759.0,3.0
22780971,11,55_L-NS1_R-WM0,0,2.0,4.0,10.0,15.0,1,0,2.0,-5.0,-1,-1.0,0.55,3101.0,4899.0,4.0
22780971,12,24_L-NS1_R-WL0,0,2.0,4.0,10.0,20.0,1,0,2.0,-10.0,-1,-1.0,0.6,5106.0,2894.0,4.0
22780971,13,05_L-EM0_R-EL0,1,2.0,2.0,15.0,20.0,0,0,0.0,-5.0,0,-1.0,0.65,1244.0,6756.0,1.0
22780971,14,04_L-EL1_R-ES0,0,2.0,2.0,20.0,10.0,1,0,0.0,10.0,-1,1.0,0.7,3923.0,4077.0,4.0
22780971,15,58_L-WM0_R-NL1,1,4.0,2.0,15.0,20.0,0,1,-2.0,-5.0,1,-1.0,0.75,4511.0,3489.0,4.0
22780971,16,59_L-WM0_R-NM1,1,4.0,2.0,15.0,15.0,0,1,-2.0,0.0,1,1.0,0.8,3015.0,4985.0,4.0
22780971,17,09_L-ES0_R-EL1,1,2.0,2.0,10.0,20.0,0,1,0.0,-10.0,1,1.0,0.85,4676.0,3324.0,4.0
22780971,18,62_L-WM1_R-NM0,0,4.0,2.0,15.0,15.0,1,0,-2.0,0.0,-1,1.0,0.9,4082.0,3918.0,4.0
22780971,19,26_L-WL0_R-NM0,0,4.0,2.0,20.0,15.0,0,0,-2.0,5.0,0,-1.0,0.95,4310.0,3690.0,3.0
22780971,20,49_L-NM0_R-WM1,1,2.0,4.0,15.0,15.0,0,1,2.0,0.0,1,-1.0,1.0,4333.0,3667.0,4.0
24635816,1,53_L-NM1_R-WS0,0,2.0,4.0,15.0,10.0,1,0,2.0,5.0,-1,0.0,0.05,2791.0,5209.0,5.0
24635816,2,58_L-WM0_R-NL1,1,4.0,2.0,15.0,20.0,0,1,-2.0,-5.0,1,-1.0,0.1,4637.0,3363.0,4.0
24635816,3,25_L-WM0_R-NM0,1,4.0,2.0,15.0,15.0,0,0,-2.0,0.0,0,1.0,0.15,4065.0,3935.0,3.0
24635816,4,38_L-EM0_R-EL1,1,2.0,2.0,15.0,20.0,0,1,0.0,-5.0,1,1.0,0.2,2679.0,5321.0,3.0
24635816,5,06_L-EM0_R-EM0,0,2.0,2.0,15.0,15.0,0,0,0.0,0.0,0,1.0,0.25,3418.0,4582.0,3.0
24635816,6,49_L-NM0_R-WM1,1,2.0,4.0,15.0,15.0,0,1,2.0,0.0,1,-1.0,0.3,5230.0,2770.0,5.0
24635816,7,36_L-EL0_R-EM1,1,2.0,2.0,20.0,15.0,0,1,0.0,5.0,1,1.0,0.35,5255.0,2745.0,5.0
24635816,8,20_L-NM0_R-WS0,1,2.0,4.0,15.0,10.0,0,0,2.0,5.0,0,1.0,0.4,3853.0,4147.0,4.0
24635816,9,11_L-ES1_R-EL0,0,2.0,2.0,10.0,20.0,1,0,0.0,-10.0,-1,1.0,0.45,3260.0,4740.0,4.0
24635816,10,21_L-NS0_R-WL0,0,2.0,4.0,10.0,20.0,0,0,2.0,-10.0,0,-1.0,0.5,4687.0,3313.0,3.0
24635816,11,16_L-NL0_R-WS0,1,2.0,4.0,20.0,10.0,0,0,2.0,10.0,0,-1.0,0.55,3564.0,4436.0,4.0
24635816,12,22_L-NS0_R-WL1,1,2.0,4.0,10.0,20.0,0,1,2.0,-10.0,1,1.0,0.6,5435.0,2565.0,4.0
24635816,13,33_L-WS0_R-NL1,1,4.0,2.0,10.0,20.0,0,1,-2.0,-10.0,1,1.0,0.65,4638.0,3362.0,3.0
24635816,14,05_L-EM0_R-EL0,0,2.0,2.0,15.0,20.0,0,0,0.0,-5.0,0,1.0,0.7,4494.0,3506.0,3.0
24635816,15,41_L-EM1_R-EL0,0,2.0,2.0,15.0,20.0,1,0,0.0,-5.0,-1,-1.0,0.75,4515.0,3485.0,5.0
24635816,16,47_L-NL1_R-WM0,0,2.0,4.0,20.0,15.0,1,0,2.0,5.0,-1,-1.0,0.8,5353.0,2647.0,4.0
24635816,17,19_L-NM0_R-WL0,0,2.0,4.0,15.0,20.0,0,0,2.0,-5.0,0,-1.0,0.85,3634.0,4366.0,3.0
24635816,18,31_L-WM0_R-NS0,1,4.0,2.0,15.0,10.0,0,0,-2.0,5.0,0,-1.0,0.9,5412.0,2588.0,3.0
24635816,19,27_L-WL0_R-NS0,1,4.0,2.0,20.0,10.0,0,0,-2.0,10.0,0,1.0,0.95,5183.0,2817.0,4.0
24635816,20,12_L-NM0_R-WM0,1,2.0,4.0,15.0,15.0,0,0,2.0,0.0,0,1.0,1.0,3627.0,4373.0,4.0
24674743,1,21_L-NS0_R-WL0,1,2.0,4.0,10.0,20.0,0,0,2.0,-10.0,0,0.0,0.05,3885.0,4115.0,4.0
24674743,2,62_L-WM1_R-NM0,0,4.0,2.0,15.0,15.0,1,0,-2.0,0.0,-1,1.0,0.1,3235.0,4765.0,4.0
24674743,3,02_L-EL0_R-ES0,1,2.0,2.0,20.0,10.0,0,0,0.0,10.0,0,-1.0,0.15,7.0,7993.0,2.0
24674743,4,63_L-WM1_R-NS0,0,4.0,2.0,15.0,10.0,1,0,-2.0,5.0,-1,1.0,0.2,4283.0,3717.0,5.0
24674743,5,49_L-NM0_R-WM1,1,2.0,4.0,15.0,15.0,0,1,2.0,0.0,1,-1.0,0.25,2949.0,5051.0,5.0
24674743,6,23_L-NS0_R-WM0,1,2.0,4.0,10.0,15.0,0,0,2.0,-5.0,0,1.0,0.3,3200.0,4800.0,3.0
24674743,7,59_L-WM0_R-NM1,1,4.0,2.0,15.0,15.0,0,1,-2.0,0.0,1,1.0,0.35,3950.0,4050.0,4.0
24674743,8,26_L-WL0_R-NM0,0,4.0,2.0,20.0,15.0,0,0,-2.0,5.0,0,1.0,0.4,4010.0,3990.0,3.0
24674743,9,44_L-ES0_R-EM1,1,2.0,2.0,10.0,15.0,0,1,0.0,-5.0,1,-1.0,0.45,4089.0,3911.0,4.0
24674743,10,22_L-NS0_R-WL1,1,2.0,4.0,10.0,20.0,0,1,2.0,-10.0,1,1.0,0.5,4202.0,3798.0,5.0
24674743,11,52_L-NM1_R-WM0,0,2.0,4.0,15.0,15.0,1,0,2.0,0.0,-1,1.0,0.55,4686.0,3314.0,3.0
24674743,12,25_L-WM0_R-NM0,0,4.0,2.0,15.0,15.0,0,0,-2.0,0.0,0,-1.0,0.6,5251.0,2749.0,2.0
24674743,13,40_L-EM0_R-ES1,1,2.0,2.0,15.0,10.0,0,1,0.0,5.0,1,-1.0,0.65,4983.0,3017.0,4.0
24674743,14,56_L-WL0_R-NM1,1,4.0,2.0,20.0,15.0,0,1,-2.0,5.0,1,1.0,0.7,3473.0,4527.0,4.0
24674743,15,37_L-EL1_R-EM0,0,2.0,2.0,20.0,15.0,1,0,0.0,5.0,-1,1.0,0.75,4984.0,3016.0,4.0
24674743,16,04_L-EL1_R-ES0,0,2.0,2.0,20.0,10.0,1,0,0.0,10.0,-1,-1.0,0.8,4928.0,3072.0,4.0
24674743,17,34_L-WS0_R-NM0,0,4.0,2.0,10.0,15.0,0,0,-2.0,-5.0,0,-1.0,0.85,5027.0,2973.0,2.0
24674743,18,58_L-WM0_R-NL1,1,4.0,2.0,15.0,20.0,0,1,-2.0,-5.0,1,-1.0,0.9,5281.0,2719.0,4.0
24674743,19,15_L-NL0_R-WM0,1,2.0,4.0,20.0,15.0,0,0,2.0,5.0,0,1.0,0.95,3699.0,4301.0,2.0
24674743,20,50_L-NM0_R-WS1,1,2.0,4.0,15.0,10.0,0,1,2.0,5.0,1,1.0,1.0,4825.0,3175.0,5.0
25044298,1,19_L-NM0_R-WL0,1,2.0,4.0,15.0,20.0,0,0,2.0,-5.0,0,0.0,0.05,4280.0,3720.0,4.0
25044298,2,17_L-NL0_R-WS1,1,2.0,4.0,20.0,10.0,0,1,2.0,10.0,1,1.0,0.1,4438.0,3562.0,4.0
25044298,3,35_L-WS1_R-NL0,0,4.0,2.0,10.0,20.0,1,0,-2.0,-10.0,-1,1.0,0.15,4581.0,3419.0,4.0
25044298,4,16_L-NL0_R-WS0,1,2.0,4.0,20.0,10.0,0,0,2.0,10.0,0,-1.0,0.2,4016.0,3984.0,4.0
25044298,5,63_L-WM1_R-NS0,0,4.0,2.0,15.0,10.0,1,0,-2.0,5.0,-1,1.0,0.25,5213.0,2787.0,3.0
25044298,6,23_L-NS0_R-WM0,1,2.0,4.0,10.0,15.0,0,0,2.0,-5.0,0,-1.0,0.3,2110.0,5890.0,3.0
25044298,7,52_L-NM1_R-WM0,0,2.0,4.0,15.0,15.0,1,0,2.0,0.0,-1,1.0,0.35,4572.0,3428.0,4.0
25044298,8,55_L-NS1_R-WM0,0,2.0,4.0,10.0,15.0,1,0,2.0,-5.0,-1,-1.0,0.4,5000.0,3000.0,5.0
25044298,9,12_L-NM0_R-WM0,1,2.0,4.0,15.0,15.0,0,0,2.0,0.0,0,-1.0,0.45,4939.0,3061.0,4.0
25044298,10,27_L-WL0_R-NS0,0,4.0,2.0,20.0,10.0,0,0,-2.0,10.0,0,1.0,0.5,1444.0,6556.0,3.0
25044298,11,29_L-WL1_R-NS0,0,4.0,2.0,20.0,10.0,1,0,-2.0,10.0,-1,-1.0,0.55,5458.0,2542.0,4.0
25044298,12,59_L-WM0_R-NM1,1,4.0,2.0,15.0,15.0,0,1,-2.0,0.0,1,-1.0,0.6,6247.0,1753.0,4.0
25044298,13,45_L-ES1_R-EM0,0,2.0,2.0,10.0,15.0,1,0,0.0,-5.0,-1,1.0,0.65,5736.0,2264.0,3.0
25044298,14,06_L-EM0_R-EM0,1,2.0,2.0,15.0,15.0,0,0,0.0,0.0,0,-1.0,0.7,3626.0,4374.0,3.0
25044298,15,36_L-EL0_R-EM1,1,2.0,2.0,20.0,15.0,0,1,0.0,5.0,1,1.0,0.75,753.0,7247.0,4.0
25044298,16,37_L-EL1_R-EM0,0,2.0,2.0,20.0,15.0,1,0,0.0,5.0,-1,1.0,0.8,5479.0,2521.0,4.0
25044298,17,60_L-WM0_R-NS1,1,4.0,2.0,15.0,10.0,0,1,-2.0,5.0,1,-1.0,0.85,5757.0,2243.0,4.0
25044298,18,09_L-ES0_R-EL1,1,2.0,2.0,10.0,20.0,0,1,0.0,-10.0,1,1.0,0.9,4718.0,3282.0,4.0
25044298,19,30_L-WM0_R-NL0,0,4.0,2.0,15.0,20.0,0,0,-2.0,-5.0,0,1.0,0.95,5271.0,2729.0,5.0
25044298,20,43_L-EM1_R-ES0,0,2.0,2.0,15.0,10.0,1,0,0.0,5.0,-1,-1.0,1.0,3318.0,4682.0,4.0
25276311,1,48_L-NM0_R-WL1,1,2.0,4.0,15.0,20.0,0,1,2.0,-5.0,1,0.0,0.05,4452.0,3548.0,2.0
25276311,3,61_L-WM1_R-NL0,0,4.0,2.0,15.0,20.0,1,0,-2.0,-5.0,-1,1.0,0.15,5828.0,2172.0,4.0
25276311,4,08_L-ES0_R-EL0,1,2.0,2.0,10.0,20.0,0,0,0.0,-10.0,0,-1.0,0.2,3668.0,4332.0,2.0
25276311,5,60_L-WM0_R-NS1,1,4.0,2.0,15.0,10.0,0,1,-2.0,5.0,1,1.0,0.25,5392.0,2608.0,4.0
25276311,7,23_L-NS0_R-WM0,1,2.0,4.0,10.0,15.0,0,0,2.0,-5.0,0,1.0,0.35,5327.0,2673.0,4.0
25276311,8,25_L-WM0_R-NM0,1,4.0,2.0,15.0,15.0,0,0,-2.0,0.0,0,1.0,0.4,2365.0,5635.0,1.0
25276311,9,44_L-ES0_R-EM1,1,2.0,2.0,10.0,15.0,0,1,0.0,-5.0,1,1.0,0.45,6195.0,1805.0,4.0
25276311,10,41_L-EM1_R-EL0,0,2.0,2.0,15.0,20.0,1,0,0.0,-5.0,-1,1.0,0.5,5748.0,2252.0,4.0
25276311,11,54_L-NS0_R-WM1,1,2.0,4.0,10.0,15.0,0,1,2.0,-5.0,1,-1.0,0.55,5633.0,2367.0,4.0
25276311,12,55_L-NS1_R-WM0,1,2.0,4.0,10.0,15.0,1,0,2.0,-5.0,-1,1.0,0.6,1610.0,6390.0,1.0
25276311,13,51_L-NM1_R-WL0,0,2.0,4.0,15.0,20.0,1,0,2.0,-5.0,-1,1.0,0.65,6464.0,1536.0,4.0
25276311,14,26_L-WL0_R-NM0,0,4.0,2.0,20.0,15.0,0,0,-2.0,5.0,0,-1.0,0.7,5519.0,2481.0,2.0
25276311,15,52_L-NM1_R-WM0,0,2.0,4.0,15.0,15.0,1,0,2.0,0.0,-1,-1.0,0.75,5976.0,2024.0,4.0
25276311,16,19_L-NM0_R-WL0,0,2.0,4.0,15.0,20.0,0,0,2.0,-5.0,0,-1.0,0.8,6282.0,1718.0,3.0
25276311,17,09_L-ES0_R-EL1,1,2.0,2.0,10.0,20.0,0,1,0.0,-10.0,1,-1.0,0.85,5505.0,2495.0,4.0
25276311,18,62_L-WM1_R-NM0,0,4.0,2.0,15.0,15.0,1,0,-2.0,0.0,-1,1.0,0.9,6389.0,1611.0,4.0
25276311,19,07_L-EM0_R-ES0,1,2.0,2.0,15.0,10.0,0,0,0.0,5.0,0,-1.0,0.95,4762.0,3238.0,2.0
25276311,20,63_L-WM1_R-NS0,0,4.0,2.0,15.0,10.0,1,0,-2.0,5.0,-1,1.0,1.0,6508.0,1492.0,4.0
26219321,1,42_L-EM1_R-EM0,0,2.0,2.0,15.0,15.0,1,0,0.0,0.0,-1,0.0,0.05,4388.0,3612.0,4.0
26219321,3,15_L-NL0_R-WM0,1,2.0,4.0,20.0,15.0,0,0,2.0,5.0,0,-1.0,0.15,3756.0,4244.0,3.0
26219321,4,38_L-EM0_R-EL1,1,2.0,2.0,15.0,20.0,0,1,0.0,-5.0,1,1.0,0.2,4075.0,3925.0,4.0
26219321,5,27_L-WL0_R-NS0,0,4.0,2.0,20.0,10.0,0,0,-2.0,10.0,0,1.0,0.25,4047.0,3953.0,3.0
26219321,6,49_L-NM0_R-WM1,1,2.0,4.0,15.0,15.0,0,1,2.0,0.0,1,-1.0,0.3,5042.0,2958.0,4.0
26219321,7,16_L-NL0_R-WS0,1,2.0,4.0,20.0,10.0,0,0,2.0,10.0,0,1.0,0.35,4964.0,3036.0,4.0
26219321,8,47_L-NL1_R-WM0,0,2.0,4.0,20.0,15.0,1,0,2.0,5.0,-1,1.0,0.4,2303.0,5697.0,2.0
26219321,9,14_L-WS1_R-NM0,0,4.0,2.0,10.0,15.0,1,0,-2.0,-5.0,-1,-1.0,0.45,4786.0,3214.0,4.0
26219321,10,56_L-WL0_R-NM1,1,4.0,2.0,20.0,15.0,0,1,-2.0,5.0,1,-1.0,0.5,4259.0,3741.0,2.0
26219321,11,18_L-NL1_R-WS0,0,2.0,4.0,20.0,10.0,1,0,2.0,10.0,-1,1.0,0.55,3193.0,4807.0,2.0
26219321,12,37_L-EL1_R-EM0,0,2.0,2.0,20.0,15.0,1,0,0.0,5.0,-1,-1.0,0.6,4778.0,3222.0,4.0
26219321,13,45_L-ES1_R-EM0,0,2.0,2.0,10.0,15.0,1,0,0.0,-5.0,-1,-1.0,0.65,5081.0,2919.0,4.0
26219321,14,60_L-WM0_R-NS1,1,4.0,2.0,15.0,10.0,0,1,-2.0,5.0,1,-1.0,0.7,4023.0,3977.0,2.0
26219321,15,05_L-EM0_R-EL0,1,2.0,2.0,15.0,20.0,0,0,0.0,-5.0,0,1.0,0.75,2737.0,5263.0,1.0
26219321,16,30_L-WM0_R-NL0,0,4.0,2.0,15.0,20.0,0,0,-2.0,-5.0,0,1.0,0.8,4561.0,3439.0,4.0
26219321,17,11_L-ES1_R-EL0,0,2.0,2.0,10.0,20.0,1,0,0.0,-10.0,-1,-1.0,0.85,3485.0,4515.0,4.0
26219321,18,22_L-NS0_R-WL1,1,2.0,4.0,10.0,20.0,0,1,2.0,-10.0,1,-1.0,0.9,5260.0,2740.0,4.0
26219321,19,20_L-NM0_R-WS0,1,2.0,4.0,15.0,10.0,0,0,2.0,5.0,0,1.0,0.95,4806.0,3194.0,4.0
26219321,20,54_L-NS0_R-WM1,1,2.0,4.0,10.0,15.0,0,1,2.0,-5.0,1,1.0,1.0,5473.0,2527.0,4.0
26396701,1,36_L-EL0_R-EM1,1,2.0,2.0,20.0,15.0,0,1,0.0,5.0,1,0.0,0.05,3993.0,4007.0,4.0
26396701,2,54_L-NS0_R-WM1,1,2.0,4.0,10.0,15.0,0,1,2.0,-5.0,1,1.0,0.1,3658.0,4342.0,4.0
26396701,3,52_L-NM1_R-WM0,1,2.0,4.0,15.0,15.0,1,0,2.0,0.0,-1,1.0,0.15,4113.0,3887.0,4.0
26396701,4,29_L-WL1_R-NS0,0,4.0,2.0,20.0,10.0,1,0,-2.0,10.0,-1,1.0,0.2,4228.0,3772.0,3.0
26396701,5,37_L-EL1_R-EM0,0,2.0,2.0,20.0,15.0,1,0,0.0,5.0,-1,-1.0,0.25,4199.0,3801.0,3.0
26396701,6,49_L-NM0_R-WM1,1,2.0,4.0,15.0,15.0,0,1,2.0,0.0,1,-1.0,0.3,6164.0,1836.0,4.0
26396701,7,09_L-ES0_R-EL1,0,2.0,2.0,10.0,20.0,0,1,0.0,-10.0,1,1.0,0.35,3399.0,4601.0,4.0
26396701,8,22_L-NS0_R-WL1,1,2.0,4.0,10.0,20.0,0,1,2.0,-10.0,1,-1.0,0.4,4321.0,3679.0,4.0
26396701,9,18_L-NL1_R-WS0,1,2.0,4.0,20.0,10.0,1,0,2.0,10.0,-1,1.0,0.45,5433.0,2567.0,4.0
26396701,10,57_L-WL1_R-NM0,1,4.0,2.0,20.0,15.0,1,0,-2.0,5.0,-1,1.0,0.5,2917.0,5083.0,4.0
26396701,11,26_L-WL0_R-NM0,0,4.0,2.0,20.0,15.0,0,0,-2.0,5.0,0,1.0,0.55,2900.0,5100.0,3.0
26396701,12,50_L-NM0_R-WS1,1,2.0,4.0,15.0,10.0,0,1,2.0,5.0,1,-1.0,0.6,5375.0,2625.0,4.0
26396701,13,06_L-EM0_R-EM0,1,2.0,2.0,15.0,15.0,0,0,0.0,0.0,0,1.0,0.65,3777.0,4223.0,3.0
26396701,14,53_L-NM1_R-WS0,1,2.0,4.0,15.0,10.0,1,0,2.0,5.0,-1,1.0,0.7,3016.0,4984.0,4.0
26396701,15,63_L-WM1_R-NS0,0,4.0,2.0,15.0,10.0,1,0,-2.0,5.0,-1,1.0,0.75,4866.0,3134.0,4.0
26396701,16,58_L-WM0_R-NL1,1,4.0,2.0,15.0,20.0,0,1,-2.0,-5.0,1,-1.0,0.8,3391.0,4609.0,4.0
26396701,17,12_L-NM0_R-WM0,1,2.0,4.0,15.0,15.0,0,0,2.0,0.0,0,1.0,0.85,4799.0,3201.0,4.0
26396701,18,21_L-NS0_R-WL0,0,2.0,4.0,10.0,20.0,0,0,2.0,-10.0,0,1.0,0.9,4066.0,3934.0,3.0
26396701,20,46_L-NL0_R-WM1,0,2.0,4.0,20.0,15.0,0,1,2.0,5.0,1,-1.0,1.0,5233.0,2767.0,3.0
26483377,1,37_L-EL1_R-EM0,0,2.0,2.0,20.0,15.0,1,0,0.0,5.0,-1,0.0,0.05,4668.0,3332.0,4.0
26483377,2,09_L-ES0_R-EL1,1,2.0,2.0,10.0,20.0,0,1,0.0,-10.0,1,-1.0,0.1,5273.0,2727.0,4.0
26483377,3,01_L-EL0_R-EM0,0,2.0,2.0,20.0,15.0,0,0,0.0,5.0,0,1.0,0.15,2443.0,5557.0,4.0
26483377,4,42_L-EM1_R-EM0,0,2.0,2.0,15.0,15.0,1,0,0.0,0.0,-1,-1.0,0.2,5710.0,2290.0,4.0
26483377,5,41_L-EM1_R-EL0,0,2.0,2.0,15.0,20.0,1,0,0.0,-5.0,-1,-1.0,0.25,5491.0,2509.0,4.0
26483377,6,02_L-EL0_R-ES0,1,2.0,2.0,20.0,10.0,0,0,0.0,10.0,0,-1.0,0.3,4515.0,3485.0,3.0
26483377,7,33_L-WS0_R-NL1,1,4.0,2.0,10.0,20.0,0,1,-2.0,-10.0,1,1.0,0.35,6327.0,1673.0,4.0
26483377,8,15_L-NL0_R-WM0,1,2.0,4.0,20.0,15.0,0,0,2.0,5.0,0,1.0,0.4,4357.0,3643.0,4.0
26483377,9,18_L-NL1_R-WS0,0,2.0,4.0,20.0,10.0,1,0,2.0,10.0,-1,1.0,0.45,5279.0,2721.0,4.0
26483377,10,38_L-EM0_R-EL1,1,2.0,2.0,15.0,20.0,0,1,0.0,-5.0,1,-1.0,0.5,4394.0,3606.0,4.0
26483377,11,03_L-EL0_R-ES1,1,2.0,2.0,20.0,10.0,0,1,0.0,10.0,1,1.0,0.55,6388.0,1612.0,4.0
26483377,12,48_L-NM0_R-WL1,1,2.0,4.0,15.0,20.0,0,1,2.0,-5.0,1,1.0,0.6,6151.0,1849.0,4.0
26483377,13,43_L-EM1_R-ES0,0,2.0,2.0,15.0,10.0,1,0,0.0,5.0,-1,1.0,0.65,5527.0,2473.0,4.0
26483377,14,35_L-WS1_R-NL0,0,4.0,2.0,10.0,20.0,1,0,-2.0,-10.0,-1,-1.0,0.7,4320.0,3680.0,3.0
26483377,15,16_L-NL0_R-WS0,1,2.0,4.0,20.0,10.0,0,0,2.0,10.0,0,-1.0,0.75,5146.0,2854.0,3.0
26483377,16,46_L-NL0_R-WM1,1,2.0,4.0,20.0,15.0,0,1,2.0,5.0,1,1.0,0.8,6050.0,1950.0,3.0
26483377,17,62_L-WM1_R-NM0,0,4.0,2.0,15.0,15.0,1,0,-2.0,0.0,-1,1.0,0.85,5266.0,2734.0,3.0
26483377,18,06_L-EM0_R-EM0,1,2.0,2.0,15.0,15.0,0,0,0.0,0.0,0,-1.0,0.9,5137.0,2863.0,3.0
26483377,19,20_L-NM0_R-WS0,1,2.0,4.0,15.0,10.0,0,0,2.0,5.0,0,1.0,0.95,5909.0,2091.0,4.0
26483377,20,50_L-NM0_R-WS1,1,2.0,4.0,15.0,10.0,0,1,2.0,5.0,1,1.0,1.0,5115.0,2885.0,5.0
26517881,1,12_L-NM0_R-WM0,1,2.0,4.0,15.0,15.0,0,0,2.0,0.0,0,0.0,0.05,5123.0,2877.0,4.0
26517881,2,63_L-WM1_R-NS0,0,4.0,2.0,15.0,10.0,1,0,-2.0,5.0,-1,1.0,0.1,4837.0,3163.0,4.0
26517881,3,20_L-NM0_R-WS0,1,2.0,4.0,15.0,10.0,0,0,2.0,5.0,0,-1.0,0.15,3804.0,4196.0,4.0
26517881,4,24_L-NS1_R-WL0,0,2.0,4.0,10.0,20.0,1,0,2.0,-10.0,-1,1.0,0.2,4649.0,3351.0,4.0
26517881,5,60_L-WM0_R-NS1,1,4.0,2.0,15.0,10.0,0,1,-2.0,5.0,1,-1.0,0.25,5198.0,2802.0,4.0
26517881,6,23_L-NS0_R-WM0,1,2.0,4.0,10.0,15.0,0,0,2.0,-5.0,0,1.0,0.3,5780.0,2220.0,4.0
26517881,7,41_L-EM1_R-EL0,0,2.0,2.0,15.0,20.0,1,0,0.0,-5.0,-1,1.0,0.35,5102.0,2898.0,4.0
26517881,8,06_L-EM0_R-EM0,0,2.0,2.0,15.0,15.0,0,0,0.0,0.0,0,-1.0,0.4,4961.0,3039.0,2.0
26517881,9,13_L-WS0_R-NM1,1,4.0,2.0,10.0,15.0,0,1,-2.0,-5.0,1,-1.0,0.45,6142.0,1858.0,4.0
26517881,11,34_L-WS0_R-NM0,0,4.0,2.0,10.0,15.0,0,0,-2.0,-5.0,0,1.0,0.55,5163.0,2837.0,4.0
26517881,12,61_L-WM1_R-NL0,0,4.0,2.0,15.0,20.0,1,0,-2.0,-5.0,-1,-1.0,0.6,4075.0,3925.0,4.0
26517881,13,30_L-WM0_R-NL0,0,4.0,2.0,15.0,20.0,0,0,-2.0,-5.0,0,-1.0,0.65,5202.0,2798.0,4.0
26517881,14,02_L-EL0_R-ES0,1,2.0,2.0,20.0,10.0,0,0,0.0,10.0,0,-1.0,0.7,6136.0,1864.0,4.0
26517881,15,47_L-NL1_R-WM0,0,2.0,4.0,20.0,15.0,1,0,2.0,5.0,-1,1.0,0.75,4354.0,3646.0,4.0
26517881,16,40_L-EM0_R-ES1,1,2.0,2.0,15.0,10.0,0,1,0.0,5.0,1,-1.0,0.8,5031.0,2969.0,4.0
26517881,17,57_L-WL1_R-NM0,0,4.0,2.0,20.0,15.0,1,0,-2.0,5.0,-1,1.0,0.85,5075.0,2925.0,4.0
26517881,18,22_L-NS0_R-WL1,1,2.0,4.0,10.0,20.0,0,1,2.0,-10.0,1,-1.0,0.9,5561.0,2439.0,4.0
26517881,19,16_L-NL0_R-WS0,1,2.0,4.0,20.0,10.0,0,0,2.0,10.0,0,1.0,0.95,6323.0,1677.0,4.0
26517881,20,27_L-WL0_R-NS0,0,4.0,2.0,20.0,10.0,0,0,-2.0,10.0,0,1.0,1.0,5036.0,2964.0,4.0
28317608,1,32_L-WS0_R-NL0,0,4.0,2.0,10.0,20.0,0,0,-2.0,-10.0,0,0.0,0.05,4374.0,3626.0,4.0
28317608,2,34_L-WS0_R-NM0,0,4.0,2.0,10.0,15.0,0,0,-2.0,-5.0,0,-1.0,0.1,5466.0,2534.0,4.0
28317608,3,07_L-EM0_R-ES0,1,2.0,2.0,15.0,10.0,0,0,0.0,5.0,0,-1.0,0.15,4860.0,3140.0,4.0
28317608,4,43_L-EM1_R-ES0,0,2.0,2.0,15.0,10.0,1,0,0.0,5.0,-1,1.0,0.2,4674.0,3326.0,5.0
28317608,5,40_L-EM0_R-ES1,1,2.0,2.0,15.0,10.0,0,1,0.0,5.0,1,-1.0,0.25,5490.0,2510.0,5.0
28317608,6,26_L-WL0_R-NM0,0,4.0,2.0,20.0,15.0,0,0,-2.0,5.0,0,1.0,0.3,4708.0,3292.0,3.0
28317608,7,25_L-WM0_R-NM0,0,4.0,2.0,15.0,15.0,0,0,-2.0,0.0,0,-1.0,0.35,5316.0,2684.0,3.0
28317608,8,63_L-WM1_R-NS0,0,4.0,2.0,15.0,10.0,1,0,-2.0,5.0,-1,-1.0,0.4,5930.0,2070.0,5.0
28317608,9,19_L-NM0_R-WL0,0,2.0,4.0,15.0,20.0,0,0,2.0,-5.0,0,-1.0,0.45,4853.0,3147.0,3.0
28317608,10,14_L-WS1_R-NM0,0,4.0,2.0,10.0,15.0,1,0,-2.0,-5.0,-1,-1.0,0.5,6350.0,1650.0,5.0
28317608,11,58_L-WM0_R-NL1,1,4.0,2.0,15.0,20.0,0,1,-2.0,-5.0,1,-1.0,0.55,5082.0,2918.0,5.0
28317608,12,44_L-ES0_R-EM1,1,2.0,2.0,10.0,15.0,0,1,0.0,-5.0,1,1.0,0.6,5608.0,2392.0,5.0
28317608,13,46_L-NL0_R-WM1,1,2.0,4.0,20.0,15.0,0,1,2.0,5.0,1,1.0,0.65,5650.0,2350.0,5.0
28317608,14,02_L-EL0_R-ES0,1,2.0,2.0,20.0,10.0,0,0,0.0,10.0,0,1.0,0.7,5463.0,2537.0,3.0
28317608,15,20_L-NM0_R-WS0,1,2.0,4.0,15.0,10.0,0,0,2.0,5.0,0,1.0,0.75,6130.0,1870.0,3.0
28317608,16,13_L-WS0_R-NM1,1,4.0,2.0,10.0,15.0,0,1,-2.0,-5.0,1,1.0,0.8,5169.0,2831.0,5.0
28317608,17,59_L-WM0_R-NM1,1,4.0,2.0,15.0,15.0,0,1,-2.0,0.0,1,1.0,0.85,6388.0,1612.0,5.0
28317608,18,62_L-WM1_R-NM0,0,4.0,2.0,15.0,15.0,1,0,-2.0,0.0,-1,1.0,0.9,5489.0,2511.0,5.0
28317608,19,10_L-ES0_R-EM0,0,2.0,2.0,10.0,15.0,0,0,0.0,-5.0,0,-1.0,0.95,6332.0,1668.0,3.0
28317608,20,11_L-ES1_R-EL0,0,2.0,2.0,10.0,20.0,1,0,0.0,-10.0,-1,-1.0,1.0,5661.0,2339.0,5.0
28535485,1,57_L-WL1_R-NM0,0,4.0,2.0,20.0,15.0,1,0,-2.0,5.0,-1,0.0,0.05,3107.0,4893.0,2.0
28535485,3,60_L-WM0_R-NS1,0,4.0,2.0,15.0,10.0,0,1,-2.0,5.0,1,-1.0,0.15,4379.0,3621.0,4.0
28535485,4,38_L-EM0_R-EL1,0,2.0,2.0,15.0,20.0,0,1,0.0,-5.0,1,-1.0,0.2,4400.0,3600.0,2.0
28535485,5,16_L-NL0_R-WS0,1,2.0,4.0,20.0,10.0,0,0,2.0,10.0,0,-1.0,0.25,4997.0,3003.0,5.0
28535485,6,40_L-EM0_R-ES1,1,2.0,2.0,15.0,10.0,0,1,0.0,5.0,1,1.0,0.3,2863.0,5137.0,2.0
28535485,7,46_L-NL0_R-WM1,1,2.0,4.0,20.0,15.0,0,1,2.0,5.0,1,1.0,0.35,4630.0,3370.0,4.0
28535485,8,37_L-EL1_R-EM0,0,2.0,2.0,20.0,15.0,1,0,0.0,5.0,-1,1.0,0.4,4598.0,3402.0,4.0
28535485,9,05_L-EM0_R-EL0,0,2.0,2.0,15.0,20.0,0,0,0.0,-5.0,0,-1.0,0.45,5181.0,2819.0,2.0
28535485,10,55_L-NS1_R-WM0,1,2.0,4.0,10.0,15.0,1,0,2.0,-5.0,-1,-1.0,0.5,3549.0,4451.0,2.0
28535485,11,21_L-NS0_R-WL0,1,2.0,4.0,10.0,20.0,0,0,2.0,-10.0,0,1.0,0.55,4463.0,3537.0,3.0
28535485,12,28_L-WL0_R-NS1,0,4.0,2.0,20.0,10.0,0,1,-2.0,10.0,1,1.0,0.6,5281.0,2719.0,2.0
28535485,13,31_L-WM0_R-NS0,0,4.0,2.0,15.0,10.0,0,0,-2.0,5.0,0,-1.0,0.65,5525.0,2475.0,4.0
28535485,14,54_L-NS0_R-WM1,1,2.0,4.0,10.0,15.0,0,1,2.0,-5.0,1,-1.0,0.7,4069.0,3931.0,4.0
28535485,15,06_L-EM0_R-EM0,1,2.0,2.0,15.0,15.0,0,0,0.0,0.0,0,1.0,0.75,3129.0,4871.0,1.0
28535485,16,47_L-NL1_R-WM0,1,2.0,4.0,20.0,15.0,1,0,2.0,5.0,-1,1.0,0.8,3900.0,4100.0,2.0
28535485,17,23_L-NS0_R-WM0,1,2.0,4.0,10.0,15.0,0,0,2.0,-5.0,0,1.0,0.85,4899.0,3101.0,4.0
28535485,18,15_L-NL0_R-WM0,1,2.0,4.0,20.0,15.0,0,0,2.0,5.0,0,1.0,0.9,5012.0,2988.0,4.0
28535485,19,02_L-EL0_R-ES0,1,2.0,2.0,20.0,10.0,0,0,0.0,10.0,0,1.0,0.95,3697.0,4303.0,2.0
28535485,20,11_L-ES1_R-EL0,0,2.0,2.0,10.0,20.0,1,0,0.0,-10.0,-1,1.0,1.0,4751.0,3249.0,3.0
28840513,1,07_L-EM0_R-ES0,0,2.0,2.0,15.0,10.0,0,0,0.0,5.0,0,0.0,0.05,3736.0,4264.0,3.0
28840513,2,35_L-WS1_R-NL0,0,4.0,2.0,10.0,20.0,1,0,-2.0,-10.0,-1,-1.0,0.1,3839.0,4161.0,4.0
28840513,3,40_L-EM0_R-ES1,1,2.0,2.0,15.0,10.0,0,1,0.0,5.0,1,-1.0,0.15,3118.0,4882.0,4.0
28840513,4,61_L-WM1_R-NL0,0,4.0,2.0,15.0,20.0,1,0,-2.0,-5.0,-1,1.0,0.2,2328.0,5672.0,4.0
28840513,5,08_L-ES0_R-EL0,0,2.0,2.0,10.0,20.0,0,0,0.0,-10.0,0,-1.0,0.25,2607.0,5393.0,3.0
28840513,6,21_L-NS0_R-WL0,1,2.0,4.0,10.0,20.0,0,0,2.0,-10.0,0,-1.0,0.3,2608.0,5392.0,3.0
28840513,7,05_L-EM0_R-EL0,0,2.0,2.0,15.0,20.0,0,0,0.0,-5.0,0,1.0,0.35,356.0,7644.0,3.0
28840513,9,28_L-WL0_R-NS1,1,4.0,2.0,20.0,10.0,0,1,-2.0,10.0,1,-1.0,0.45,2692.0,5308.0,4.0
28840513,11,53_L-NM1_R-WS0,0,2.0,4.0,15.0,10.0,1,0,2.0,5.0,-1,1.0,0.55,2904.0,5096.0,3.0
28840513,12,36_L-EL0_R-EM1,1,2.0,2.0,20.0,15.0,0,1,0.0,5.0,1,-1.0,0.6,1972.0,6028.0,4.0
28840513,13,55_L-NS1_R-WM0,1,2.0,4.0,10.0,15.0,1,0,2.0,-5.0,-1,1.0,0.65,2061.0,5939.0,3.0
28840513,14,11_L-ES1_R-EL0,0,2.0,2.0,10.0,20.0,1,0,0.0,-10.0,-1,1.0,0.7,4189.0,3811.0,4.0
28840513,15,44_L-ES0_R-EM1,1,2.0,2.0,10.0,15.0,0,1,0.0,-5.0,1,-1.0,0.75,3223.0,4777.0,4.0
28840513,16,14_L-WS1_R-NM0,0,4.0,2.0,10.0,15.0,1,0,-2.0,-5.0,-1,1.0,0.8,4372.0,3628.0,5.0
28840513,17,49_L-NM0_R-WM1,1,2.0,4.0,15.0,15.0,0,1,2.0,0.0,1,-1.0,0.85,3686.0,4314.0,4.0
28840513,18,18_L-NL1_R-WS0,1,2.0,4.0,20.0,10.0,1,0,2.0,10.0,-1,1.0,0.9,4022.0,3978.0,3.0
28840513,19,48_L-NM0_R-WL1,1,2.0,4.0,15.0,20.0,0,1,2.0,-5.0,1,1.0,0.95,3588.0,4412.0,4.0
28840513,20,13_L-WS0_R-NM1,0,4.0,2.0,10.0,15.0,0,1,-2.0,-5.0,1,1.0,1.0,5021.0,2979.0,4.0
30232344,1,15_L-NL0_R-WM0,1,2.0,4.0,20.0,15.0,0,0,2.0,5.0,0,0.0,0.05,4072.0,3928.0,3.0
30232344,2,60_L-WM0_R-NS1,1,4.0,2.0,15.0,10.0,0,1,-2.0,5.0,1,1.0,0.1,5319.0,2681.0,4.0
30232344,3,62_L-WM1_R-NM0,0,4.0,2.0,15.0,15.0,1,0,-2.0,0.0,-1,1.0,0.15,5078.0,2922.0,4.0
30232344,4,51_L-NM1_R-WL0,0,2.0,4.0,15.0,20.0,1,0,2.0,-5.0,-1,-1.0,0.2,5400.0,2600.0,3.0
30232344,5,19_L-NM0_R-WL0,1,2.0,4.0,15.0,20.0,0,0,2.0,-5.0,0,-1.0,0.25,5777.0,2223.0,2.0
30232344,6,03_L-EL0_R-ES1,1,2.0,2.0,20.0,10.0,0,1,0.0,10.0,1,1.0,0.3,5863.0,2137.0,4.0
30232344,7,27_L-WL0_R-NS0,0,4.0,2.0,20.0,10.0,0,0,-2.0,10.0,0,1.0,0.35,5182.0,2818.0,3.0
30232344,8,17_L-NL0_R-WS1,1,2.0,4.0,20.0,10.0,0,1,2.0,10.0,1,-1.0,0.4,6273.0,1727.0,4.0
30232344,9,08_L-ES0_R-EL0,0,2.0,2.0,10.0,20.0,0,0,0.0,-10.0,0,1.0,0.45,4196.0,3804.0,2.0
30232344,10,34_L-WS0_R-NM0,0,4.0,2.0,10.0,15.0,0,0,-2.0,-5.0,0,-1.0,0.5,5483.0,2517.0,2.0
30232344,11,31_L-WM0_R-NS0,0,4.0,2.0,15.0,10.0,0,0,-2.0,5.0,0,-1.0,0.55,5632.0,2368.0,3.0
30232344,12,61_L-WM1_R-NL0,0,4.0,2.0,15.0,20.0,1,0,-2.0,-5.0,-1,-1.0,0.6,5339.0,2661.0,4.0
30232344,13,58_L-WM0_R-NL1,1,4.0,2.0,15.0,20.0,0,1,-2.0,-5.0,1,-1.0,0.65,5880.0,2120.0,3.0
30232344,14,25_L-WM0_R-NM0,0,4.0,2.0,15.0,15.0,0,0,-2.0,0.0,0,1.0,0.7,5864.0,2136.0,2.0
30232344,15,54_L-NS0_R-WM1,1,2.0,4.0,10.0,15.0,0,1,2.0,-5.0,1,-1.0,0.75,6222.0,1778.0,4.0
30232344,16,43_L-EM1_R-ES0,0,2.0,2.0,15.0,10.0,1,0,0.0,5.0,-1,1.0,0.8,5662.0,2338.0,4.0
30232344,17,21_L-NS0_R-WL0,0,2.0,4.0,10.0,20.0,0,0,2.0,-10.0,0,-1.0,0.85,3650.0,4350.0,2.0
30232344,18,35_L-WS1_R-NL0,0,4.0,2.0,10.0,20.0,1,0,-2.0,-10.0,-1,-1.0,0.9,5158.0,2842.0,4.0
30232344,19,10_L-ES0_R-EM0,0,2.0,2.0,10.0,15.0,0,0,0.0,-5.0,0,-1.0,0.95,3827.0,4173.0,2.0
30232344,20,52_L-NM1_R-WM0,0,2.0,4.0,15.0,15.0,1,0,2.0,0.0,-1,-1.0,1.0,6041.0,1959.0,4.0
3047992,1,25_L-WM0_R-NM0,1,4.0,2.0,15.0,15.0,0,0,-2.0,0.0,0,0.0,0.05,5676.0,2324.0,3.0
3047992,2,56_L-WL0_R-NM1,0,4.0,2.0,20.0,15.0,0,1,-2.0,5.0,1,1.0,0.1,6417.0,1583.0,3.0
3047992,3,58_L-WM0_R-NL1,1,4.0,2.0,15.0,20.0,0,1,-2.0,-5.0,1,-1.0,0.15,3811.0,4189.0,2.0
3047992,4,36_L-EL0_R-EM1,0,2.0,2.0,20.0,15.0,0,1,0.0,5.0,1,1.0,0.2,4361.0,3639.0,3.0
3047992,5,08_L-ES0_R-EL0,0,2.0,2.0,10.0,20.0,0,0,0.0,-10.0,0,-1.0,0.25,4542.0,3458.0,3.0
3047992,6,37_L-EL1_R-EM0,1,2.0,2.0,20.0,15.0,1,0,0.0,5.0,-1,-1.0,0.3,6417.0,1583.0,3.0
3047992,7,53_L-NM1_R-WS0,0,2.0,4.0,15.0,10.0,1,0,2.0,5.0,-1,1.0,0.35,5571.0,2429.0,4.0
3047992,8,14_L-WS1_R-NM0,0,4.0,2.0,10.0,15.0,1,0,-2.0,-5.0,-1,-1.0,0.4,6326.0,1674.0,4.0
3047992,9,43_L-EM1_R-ES0,0,2.0,2.0,15.0,10.0,1,0,0.0,5.0,-1,-1.0,0.45,5945.0,2055.0,4.0
3047992,10,41_L-EM1_R-EL0,0,2.0,2.0,15.0,20.0,1,0,0.0,-5.0,-1,-1.0,0.5,5774.0,2226.0,4.0
3047992,11,10_L-ES0_R-EM0,0,2.0,2.0,10.0,15.0,0,0,0.0,-5.0,0,-1.0,0.55,1995.0,6005.0,3.0
3047992,12,59_L-WM0_R-NM1,1,4.0,2.0,15.0,15.0,0,1,-2.0,0.0,1,-1.0,0.6,4625.0,3375.0,4.0
3047992,13,47_L-NL1_R-WM0,0,2.0,4.0,20.0,15.0,1,0,2.0,5.0,-1,1.0,0.65,4167.0,3833.0,3.0
3047992,15,09_L-ES0_R-EL1,1,2.0,2.0,10.0,20.0,0,1,0.0,-10.0,1,-1.0,0.75,5119.0,2881.0,4.0
3047992,16,50_L-NM0_R-WS1,1,2.0,4.0,15.0,10.0,0,1,2.0,5.0,1,1.0,0.8,6320.0,1680.0,4.0
3047992,17,27_L-WL0_R-NS0,0,4.0,2.0,20.0,10.0,0,0,-2.0,10.0,0,1.0,0.85,5456.0,2544.0,3.0
3047992,18,55_L-NS1_R-WM0,0,2.0,4.0,10.0,15.0,1,0,2.0,-5.0,-1,-1.0,0.9,6033.0,1967.0,4.0
3047992,19,19_L-NM0_R-WL0,1,2.0,4.0,15.0,20.0,0,0,2.0,-5.0,0,-1.0,0.95,4989.0,3011.0,3.0
3047992,20,51_L-NM1_R-WL0,0,2.0,4.0,15.0,20.0,1,0,2.0,-5.0,-1,1.0,1.0,6476.0,1524.0,4.0
31571679,1,19_L-NM0_R-WL0,1,2.0,4.0,15.0,20.0,0,0,2.0,-5.0,0,0.0,0.05,3238.0,4762.0,3.0
31571679,2,27_L-WL0_R-NS0,0,4.0,2.0,20.0,10.0,0,0,-2.0,10.0,0,1.0,0.1,1403.0,6597.0,4.0
31571679,3,59_L-WM0_R-NM1,0,4.0,2.0,15.0,15.0,0,1,-2.0,0.0,1,-1.0,0.15,358.0,7642.0,5.0
31571679,4,08_L-ES0_R-EL0,0,2.0,2.0,10.0,20.0,0,0,0.0,-10.0,0,-1.0,0.2,1816.0,6184.0,5.0
31571679,5,55_L-NS1_R-WM0,1,2.0,4.0,10.0,15.0,1,0,2.0,-5.0,-1,-1.0,0.25,3526.0,4474.0,5.0
31571679,6,38_L-EM0_R-EL1,0,2.0,2.0,15.0,20.0,0,1,0.0,-5.0,1,1.0,0.3,3451.0,4549.0,5.0
31571679,7,18_L-NL1_R-WS0,1,2.0,4.0,20.0,10.0,1,0,2.0,10.0,-1,-1.0,0.35,2573.0,5427.0,5.0
31571679,8,58_L-WM0_R-NL1,0,4.0,2.0,15.0,20.0,0,1,-2.0,-5.0,1,1.0,0.4,1176.0,6824.0,5.0
31571679,9,14_L-WS1_R-NM0,0,4.0,2.0,10.0,15.0,1,0,-2.0,-5.0,-1,-1.0,0.45,1453.0,6547.0,5.0
31571679,10,30_L-WM0_R-NL0,0,4.0,2.0,15.0,20.0,0,0,-2.0,-5.0,0,-1.0,0.5,3339.0,4661.0,4.0
31571679,11,28_L-WL0_R-NS1,0,4.0,2.0,20.0,10.0,0,1,-2.0,10.0,1,-1.0,0.55,158.0,7842.0,4.0
31571679,12,34_L-WS0_R-NM0,0,4.0,2.0,10.0,15.0,0,0,-2.0,-5.0,0,-1.0,0.6,2719.0,5281.0,5.0
31571679,13,43_L-EM1_R-ES0,1,2.0,2.0,15.0,10.0,1,0,0.0,5.0,-1,-1.0,0.65,1412.0,6588.0,4.0
31571679,14,16_L-NL0_R-WS0,1,2.0,4.0,20.0,10.0,0,0,2.0,10.0,0,1.0,0.7,4502.0,3498.0,5.0
31571679,15,54_L-NS0_R-WM1,1,2.0,4.0,10.0,15.0,0,1,2.0,-5.0,1,1.0,0.75,2718.0,5282.0,4.0
31571679,16,53_L-NM1_R-WS0,1,2.0,4.0,15.0,10.0,1,0,2.0,5.0,-1,1.0,0.8,3472.0,4528.0,4.0
31571679,17,37_L-EL1_R-EM0,1,2.0,2.0,20.0,15.0,1,0,0.0,5.0,-1,1.0,0.85,457.0,7543.0,3.0
31571679,18,31_L-WM0_R-NS0,0,4.0,2.0,15.0,10.0,0,0,-2.0,5.0,0,1.0,0.9,2345.0,5655.0,4.0
31571679,19,46_L-NL0_R-WM1,1,2.0,4.0,20.0,15.0,0,1,2.0,5.0,1,-1.0,0.95,4126.0,3874.0,5.0
31571679,20,20_L-NM0_R-WS0,1,2.0,4.0,15.0,10.0,0,0,2.0,5.0,0,1.0,1.0,4912.0,3088.0,5.0
32572259,1,60_L-WM0_R-NS1,1,4.0,2.0,15.0,10.0,0,1,-2.0,5.0,1,0.0,0.05,4614.0,3386.0,4.0
32572259,2,36_L-EL0_R-EM1,1,2.0,2.0,20.0,15.0,0,1,0.0,5.0,1,1.0,0.1,4071.0,3929.0,4.0
32572259,3,49_L-NM0_R-WM1,1,2.0,4.0,15.0,15.0,0,1,2.0,0.0,1,1.0,0.15,2789.0,5211.0,4.0
32572259,4,63_L-WM1_R-NS0,0,4.0,2.0,15.0,10.0,1,0,-2.0,5.0,-1,1.0,0.2,3076.0,4924.0,4.0
32572259,5,38_L-EM0_R-EL1,1,2.0,2.0,15.0,20.0,0,1,0.0,-5.0,1,-1.0,0.25,3393.0,4607.0,4.0
32572259,6,41_L-EM1_R-EL0,0,2.0,2.0,15.0,20.0,1,0,0.0,-5.0,-1,1.0,0.3,3008.0,4992.0,4.0
32572259,7,48_L-NM0_R-WL1,1,2.0,4.0,15.0,20.0,0,1,2.0,-5.0,1,-1.0,0.35,3800.0,4200.0,4.0
32572259,8,06_L-EM0_R-EM0,1,2.0,2.0,15.0,15.0,0,0,0.0,0.0,0,1.0,0.4,1603.0,6397.0,4.0
32572259,9,47_L-NL1_R-WM0,0,2.0,4.0,20.0,15.0,1,0,2.0,5.0,-1,1.0,0.45,2996.0,5004.0,4.0
32572259,10,13_L-WS0_R-NM1,1,4.0,2.0,10.0,15.0,0,1,-2.0,-5.0,1,-1.0,0.5,4283.0,3717.0,4.0
32572259,11,37_L-EL1_R-EM0,0,2.0,2.0,20.0,15.0,1,0,0.0,5.0,-1,1.0,0.55,3522.0,4478.0,4.0
32572259,12,30_L-WM0_R-NL0,1,4.0,2.0,15.0,20.0,0,0,-2.0,-5.0,0,-1.0,0.6,4044.0,3956.0,4.0
32572259,13,26_L-WL0_R-NM0,0,4.0,2.0,20.0,15.0,0,0,-2.0,5.0,0,1.0,0.65,2562.0,5438.0,4.0
32572259,14,09_L-ES0_R-EL1,1,2.0,2.0,10.0,20.0,0,1,0.0,-10.0,1,-1.0,0.7,3942.0,4058.0,4.0
32572259,15,21_L-NS0_R-WL0,1,2.0,4.0,10.0,20.0,0,0,2.0,-10.0,0,1.0,0.75,1696.0,6304.0,4.0
32572259,16,08_L-ES0_R-EL0,1,2.0,2.0,10.0,20.0,0,0,0.0,-10.0,0,1.0,0.8,4709.0,3291.0,4.0
32572259,17,61_L-WM1_R-NL0,0,4.0,2.0,15.0,20.0,1,0,-2.0,-5.0,-1,1.0,0.85,3830.0,4170.0,4.0
32572259,18,04_L-EL1_R-ES0,0,2.0,2.0,20.0,10.0,1,0,0.0,10.0,-1,-1.0,0.9,3833.0,4167.0,4.0
32572259,19,19_L-NM0_R-WL0,1,2.0,4.0,15.0,20.0,0,0,2.0,-5.0,0,-1.0,0.95,4562.0,3438.0,4.0
32572259,20,43_L-EM1_R-ES0,0,2.0,2.0,15.0,10.0,1,0,0.0,5.0,-1,1.0,1.0,2943.0,5057.0,4.0
33522516,1,59_L-WM0_R-NM1,1,4.0,2.0,15.0,15.0,0,1,-2.0,0.0,1,0.0,0.05,6067.0,1933.0,3.0
33522516,2,50_L-NM0_R-WS1,1,2.0,4.0,15.0,10.0,0,1,2.0,5.0,1,1.0,0.1,4832.0,3168.0,3.0
33522516,3,25_L-WM0_R-NM0,0,4.0,2.0,15.0,15.0,0,0,-2.0,0.0,0,1.0,0.15,3483.0,4517.0,2.0
33522516,4,55_L-NS1_R-WM0,1,2.0,4.0,10.0,15.0,1,0,2.0,-5.0,-1,-1.0,0.2,2053.0,5947.0,2.0
33522516,5,40_L-EM0_R-ES1,1,2.0,2.0,15.0,10.0,0,1,0.0,5.0,1,1.0,0.25,5614.0,2386.0,3.0
33522516,6,48_L-NM0_R-WL1,1,2.0,4.0,15.0,20.0,0,1,2.0,-5.0,1,1.0,0.3,5476.0,2524.0,4.0
33522516,7,31_L-WM0_R-NS0,0,4.0,2.0,15.0,10.0,0,0,-2.0,5.0,0,1.0,0.35,5229.0,2771.0,3.0
33522516,8,02_L-EL0_R-ES0,0,2.0,2.0,20.0,10.0,0,0,0.0,10.0,0,-1.0,0.4,3961.0,4039.0,2.0
33522516,9,10_L-ES0_R-EM0,0,2.0,2.0,10.0,15.0,0,0,0.0,-5.0,0,-1.0,0.45,4700.0,3300.0,2.0
33522516,10,08_L-ES0_R-EL0,0,2.0,2.0,10.0,20.0,0,0,0.0,-10.0,0,-1.0,0.5,2369.0,5631.0,2.0
33522516,11,37_L-EL1_R-EM0,0,2.0,2.0,20.0,15.0,1,0,0.0,5.0,-1,-1.0,0.55,5966.0,2034.0,3.0
33522516,12,45_L-ES1_R-EM0,0,2.0,2.0,10.0,15.0,1,0,0.0,-5.0,-1,-1.0,0.6,5747.0,2253.0,2.0
33522516,13,49_L-NM0_R-WM1,1,2.0,4.0,15.0,15.0,0,1,2.0,0.0,1,-1.0,0.65,6650.0,1350.0,4.0
33522516,14,35_L-WS1_R-NL0,0,4.0,2.0,10.0,20.0,1,0,-2.0,-10.0,-1,1.0,0.7,6065.0,1935.0,4.0
33522516,15,44_L-ES0_R-EM1,1,2.0,2.0,10.0,15.0,0,1,0.0,-5.0,1,-1.0,0.75,5841.0,2159.0,3.0
33522516,16,06_L-EM0_R-EM0,1,2.0,2.0,15.0,15.0,0,0,0.0,0.0,0,1.0,0.8,5866.0,2134.0,2.0
33522516,17,33_L-WS0_R-NL1,0,4.0,2.0,10.0,20.0,0,1,-2.0,-10.0,1,1.0,0.85,6348.0,1652.0,2.0
33522516,18,19_L-NM0_R-WL0,1,2.0,4.0,15.0,20.0,0,0,2.0,-5.0,0,-1.0,0.9,5372.0,2628.0,3.0
33522516,19,21_L-NS0_R-WL0,1,2.0,4.0,10.0,20.0,0,0,2.0,-10.0,0,1.0,0.95,5664.0,2336.0,3.0
33522516,20,32_L-WS0_R-NL0,0,4.0,2.0,10.0,20.0,0,0,-2.0,-10.0,0,1.0,1.0,5385.0,2615.0,3.0
